Timestamp;Accel X;Accel Y;Accel Z;Gyro X;Gyro Y;Gyro Z
11:56:27 م;4.76;-10.91;6.96;0.52;2.35;0
11:56:27 م;-5.1;-3.86;1.83;6.42;1.09;0
11:56:27 م;-3.03;-1.41;1.68;2.08;-0.92;0.03
11:56:27 م;13.01;-4.61;-7.25;-5.29;-2.66;0.04
11:56:27 م;6.88;-15.97;6.98;-8.73;1.07;0.01
11:56:27 م;4.84;-21.64;13.58;8.73;6.92;-0.01
11:56:27 م;-3.92;-4.65;1.9;5.08;-2.62;0.03
11:56:27 م;5.71;-1.48;-7.62;-5.48;0.75;0.03
11:56:27 م;17.29;-16.37;4.47;-7.02;2.59;0.01
11:56:28 م;1.49;-19.26;14.49;8.73;4.79;-0.01
11:56:28 م;-6.34;-2.66;3.86;6.82;-1.01;0.03
11:56:28 م;-0.19;-1.89;-3.13;-2.35;2.44;0.03
11:56:28 م;10.36;-15.83;2.14;-8.73;3.61;0.01
11:56:28 م;8.7;-21.46;11.87;2.19;4.03;0
11:56:28 م;-18.97;-9.22;8.9;8.73;1.53;0.01
11:56:28 م;-1.78;-0.6;2.09;-0.89;2.99;0.02
11:56:28 م;9.01;-11.64;-5.95;-8.73;-1.73;0.03
11:56:28 م;8.07;-14.39;-0.74;0.08;3.15;0.01
11:56:28 م;-5.43;-16.7;4.85;6.91;5.95;-0.01
11:56:29 م;-0.33;-2.68;1.85;5.81;-3.12;0.02
11:56:29 م;6.84;-3.02;-2.05;0.18;-0.35;0.03
11:56:29 م;6.42;-13.27;3.2;-8.31;-0.56;0.02
11:56:29 م;5.44;-18.72;9;1.42;5.5;-0.01
11:56:29 م;-14.72;-5.26;7.71;8.45;-0.56;0.01
11:56:29 م;-1.2;0.53;-1.7;1.73;2.78;0.03
11:56:29 م;8.35;-11.56;-8.79;-8.73;0.96;0.03
11:56:29 م;10.82;-20.36;8.19;0.2;5.49;0
11:56:29 م;-15.76;-10.15;12.29;8.73;1.25;-0.01
11:56:30 م;1.8;-0.38;5.67;3.4;1.92;0.02
11:56:30 م;-0.17;-6.03;-14.37;-8.73;-1.25;0.03
11:56:30 م;11.57;-17.18;8.6;-3.12;3.34;0.01
11:56:30 م;-6.58;-18.67;19.47;5.87;4.83;-0.02
11:56:30 م;-3.62;0.76;-3.62;7.5;-1.32;0.03
11:56:30 م;5.49;1.27;-10.87;-5.07;3.01;0.03
11:56:30 م;13.2;-20.72;7.82;-8.73;1.89;0.02
11:56:30 م;0.32;-16.72;16.29;7.43;3.02;-0.01
11:56:30 م;-8.25;-1.01;-0.54;8.36;-1.02;0.02
11:56:31 م;2.66;0.52;-3.24;-0.86;2.44;0.03
11:56:31 م;17.5;-21.72;5.46;-8.73;0.99;0.02
11:56:31 م;7.34;-21.49;12.52;5.42;5.11;-0.01
11:56:31 م;-18.41;-3.97;4.39;8.73;-1.72;0.02
11:56:31 م;4.91;1.02;-1.72;0.54;2.44;0.03
11:56:31 م;10.73;-18.89;-4.3;-8.73;-1.36;0.03
11:56:31 م;3.23;-17.85;4.95;2.41;5.28;0
11:56:31 م;-12.62;-8.2;8.69;8.73;1.81;0
11:56:31 م;4.06;2.14;-3.12;0.43;1.29;0.03
11:56:31 م;10.05;-13.86;-8.78;-8.73;-2.13;0.03
11:56:32 م;7.72;-16.07;7.08;0.33;2.88;0
11:56:32 م;-8.21;-12.67;6.27;8.73;4.36;-0.01
11:56:32 م;4.39;-0.78;-4.09;3.09;0.38;0.03
11:56:32 م;12.47;-20;-6.02;-8.73;0.88;0.02
11:56:32 م;15.78;-19.56;8.26;2.6;4.89;-0.01
11:56:32 م;-17.46;-5.28;2.17;8.65;1.5;0.01
11:56:32 م;5.43;0.77;-10.45;2.74;3.08;0.03
11:56:32 م;15.84;-21.76;2.34;-8.73;0.81;0.02
11:56:32 م;6.96;-17.28;8.5;2.73;4.29;-0.01
11:56:33 م;-14.27;-2.42;-2.64;8.73;1.29;0.02
11:56:33 م;12.77;-0.44;-11.15;0.39;2.95;0.03
11:56:33 م;17.1;-22.24;6.31;-8.73;1.5;0.02
11:56:33 م;5.59;-11.21;8.3;3.55;4.15;-0.01
11:56:33 م;-2.17;-0.1;-5.15;8.14;-0.39;0.02
11:56:33 م;9.35;1.31;-5.58;-1.64;0.99;0.03
11:56:33 م;12.49;-17.48;1.49;-8.73;1.62;0.02
11:56:33 م;9.61;-18.19;9.79;7.3;6.27;-0.01
11:56:33 م;-13.22;0.54;-0.94;8.73;-1.81;0.02
11:56:33 م;7.06;-0.63;-1.28;-0.79;3.87;0.03
11:56:34 م;7.35;-14.85;1.68;-8.73;2.82;0.01
11:56:34 م;10.12;-20;16.55;8.14;6.68;-0.01
11:56:34 م;-6.45;-3.38;4.92;5.65;-3.53;0.04
11:56:34 م;4.58;-1.86;-1.48;-1.61;1.76;0.03
11:56:34 م;4.35;-11.99;4.82;-7.08;1.98;0.02
11:56:34 م;7.6;-16.37;18.27;1.44;4.15;-0.01
11:56:34 م;-11.4;-3.89;7.77;6.47;-4.36;0.02
11:56:34 م;4.57;0.4;-2.47;1.48;3;0.02
11:56:34 م;10.87;-13.01;-2.72;-8.73;-0.33;0.03
11:56:35 م;0.89;-19.24;13.53;0.36;3.55;0
11:56:35 م;-11.71;-6.62;2.33;8.73;0.43;0.01
11:56:35 م;6.18;0.68;-0.36;-1.14;2.33;0.03
11:56:35 م;4.9;-13.88;1.63;-8.51;-0.54;0.02
11:56:35 م;-1.11;-19.52;18.79;6.74;3.93;-0.01
11:56:35 م;-7;-1.17;2.2;4.3;-3.41;0.02
11:56:35 م;3.61;0.25;-4.47;-1.04;4.49;0.02
11:56:35 م;13.8;-19.18;7.12;-8.73;0.68;0.01
11:56:35 م;-9.4;-18.4;13.31;7.95;3.55;-0.01
11:56:35 م;-3.98;-3.26;2.06;5.59;-1.5;0.02
11:56:36 م;1.43;-0.46;-3.06;-2.86;4.39;0.02
11:56:36 م;12.77;-15.25;8.2;-6.08;1.55;0.01
11:56:36 م;-4.38;-16.78;19.19;8.06;1.18;-0.01
11:56:36 م;-6;-1.49;0.95;4.42;-2.13;0.02
11:56:36 م;3.09;0.03;-3.18;-2.29;2.59;0.03
11:56:36 م;14.37;-17.2;4.8;-8.73;1.32;0.02
11:56:36 م;0.01;-20.24;17.47;5.48;2.27;-0.01
11:56:36 م;-11.94;-6.31;4.8;8.73;-2.32;0.02
11:56:36 م;5.23;1.02;-1.75;0.15;2.97;0.02
11:56:37 م;1.56;-13.95;-3.34;-8.73;2.3;0.03
11:56:37 م;6.14;-23.17;20.3;0.63;3.03;-0.01
11:56:37 م;-15.09;-11.46;3.68;8.73;-0.02;0
11:56:37 م;1.61;-1.33;0.85;1.88;0.71;0.03
11:56:37 م;-2.93;-11.27;-7;-8.73;2.7;0.03
11:56:37 م;7.11;-21.39;9.67;-0.06;5.86;-0.01
11:56:37 م;-6.18;-13.43;7.67;8.73;-0.06;-0.01
11:56:37 م;-6.04;-0.63;1.24;4.46;0.18;0.03
11:56:37 م;-0.91;-2.69;-9.51;-7.32;7.45;0.02
11:56:37 م;11.08;-24.09;14.57;-5.16;6.06;0
11:56:38 م;-6.05;-18.81;16.3;8.73;-0.33;-0.01
11:56:38 م;-8.24;-2.17;0.14;6.19;-0.6;0.02
11:56:38 م;5.03;0.77;-2.76;-0.03;3.95;0.03
11:56:38 م;3.64;-20.58;0.39;-8.73;0.56;0.02
11:56:38 م;5.12;-24.49;18.66;4.45;3.64;-0.02
11:56:38 م;-15.57;-5.79;1.59;8.73;-1.53;0.01
11:56:38 م;5.16;0.3;0.09;0.49;1.85;0.03
11:56:38 م;3.06;-15.22;-6.99;-8.73;0.34;0.03
11:56:38 م;5;-19.84;8.03;0.87;4.17;-0.01
11:56:39 م;-5.74;-15.4;9.68;8.73;0.16;-0.01
11:56:39 م;-3.83;0.56;0.13;4.2;0.57;0.03
11:56:39 م;0.51;-2.88;-9.64;-8.73;7.09;0.02
11:56:39 م;15.31;-22.78;14.5;-6.38;0.79;0.01
11:56:39 م;-5.34;-18.72;11.79;8.73;1.71;-0.01
11:56:39 م;-8.73;-0.47;1.31;5.92;-0.22;0.02
11:56:39 م;4.1;1.25;-6.62;-4.31;6;0.02
11:56:39 م;11.57;-24.22;6.45;-8.73;-2.1;0.02
11:56:39 م;-2.17;-22.65;16.9;6.61;2.35;-0.01
11:56:39 م;-12.98;-4.8;1.13;8.73;-1.44;0.01
11:56:40 م;4.76;-0.06;-0.5;-0.6;3.07;0.03
11:56:40 م;1.35;-21.75;-6.33;-8.73;-1.23;0.02
11:56:40 م;3.58;-25.21;11.24;3.76;4.61;-0.01
11:56:40 م;-11.82;-13.93;5.77;8.73;0.18;0
11:56:40 م;0.56;0.7;-0.64;1.93;0.87;0.03
11:56:40 م;-3.23;-9.74;-9.67;-8.73;4.45;0.03
11:56:40 م;9.52;-26.29;15.18;-1.35;4.81;-0.01
11:56:40 م;-11.49;-21.32;7.84;8.73;0.83;-0.01
11:56:40 م;-2.27;-0.52;0.54;3.25;0.25;0.03
11:56:41 م;-5.53;-7.65;-12.46;-8.73;5.72;0.03
11:56:41 م;12.64;-20.42;12.62;-0.81;4.87;0
11:56:41 م;-6.84;-19.29;9.13;8.73;1.33;-0.02
11:56:41 م;-9.71;-0.56;4.99;6.97;-2.47;0.02
11:56:41 م;3.4;1.51;-3.05;-0.66;4.73;0.03
11:56:41 م;3.34;-20.02;-4.19;-8.73;1.44;0.02
11:56:41 م;2.7;-24.66;17.76;1.52;4.35;-0.01
11:56:41 م;-11.25;-11.89;1.38;8.73;0.42;0
11:56:41 م;-0.57;1.53;2.96;3.26;1.21;0.03
11:56:41 م;0.69;-1.72;-7.44;-7.03;5.26;0.02
11:56:42 م;14.04;-22.32;11.64;-7;4.12;0.01
11:56:42 م;-5.99;-21.22;15.65;8.32;1.19;-0.01
11:56:42 م;-12.68;-3.6;5.57;7.64;-1.29;0.02
11:56:42 م;3.01;2.24;-0.42;2.07;3.3;0.02
11:56:42 م;-2.12;-8.72;-7.81;-8.73;6.58;0.02
11:56:42 م;12.1;-28.66;21.66;-2.77;3.2;0
11:56:42 م;-14.47;-24.92;7.2;8.73;0.26;0
11:56:42 م;-3.65;-0.2;-0.8;3.33;-0.22;0.03
11:56:42 م;2.88;-1.58;-2.15;-3.65;5.32;0.02
11:56:43 م;10.91;-12.9;8.11;-6.15;1.59;0.01
11:56:43 م;4.1;-17.2;20.19;5.44;1.74;-0.02
11:56:43 م;-11.49;-1.87;3.32;5.3;-0.56;0.01
11:56:43 م;2.21;0.06;-0.78;-0.6;3.16;0.03
11:56:43 م;3.61;-10.43;2.88;-7.48;1.94;0.02
11:56:43 م;13.8;-18.81;25.51;1.24;0.72;-0.01
11:56:43 م;-21.79;-7.2;5.67;7.33;-0.42;0
11:56:43 م;-1.71;1.09;-0.22;0.48;2.89;0.03
11:56:43 م;4.45;-14.85;-3.59;-8.73;-0.56;0.03
11:56:44 م;4.46;-22.12;14.76;-1.17;2.88;0
11:56:44 م;-12.23;-17.31;5.3;8.73;1.99;-0.01
11:56:44 م;-0.59;0.03;1.36;2.86;-0.58;0.03
11:56:44 م;-1.31;-1.01;-4.67;-4.87;5.4;0.02
11:56:44 م;15.93;-21.4;14.42;-8.45;1.84;0.01
11:56:44 م;-7.04;-21.58;11.69;8.73;2.57;-0.02
11:56:44 م;-7.87;-0.02;1.99;3.09;-1.26;0.02
11:56:44 م;1.76;1.64;-7.03;-3.12;5.79;0.03
11:56:44 م;15.2;-25;7.98;-8.73;2.26;0.02
11:56:44 م;-4.08;-23.92;12.63;4.44;4.14;-0.01
11:56:45 م;-15.08;-6.42;0.31;8.73;-0.09;0.01
11:56:45 م;4.01;-0.02;0.35;1.55;2.58;0.03
11:56:45 م;3.42;-18.08;-6.5;-8.73;1.75;0.03
11:56:45 م;5.01;-26.73;21.52;2.5;3.54;-0.01
11:56:45 م;-19.49;-11.37;4.48;7.87;1.56;-0.01
11:56:45 م;2.31;1.88;3.69;4.17;1.12;0.03
11:56:45 م;2.34;1.24;-8.45;-3.7;7.21;0.02
11:56:45 م;12.98;-24.81;7.27;-8.73;-0.49;0.03
11:56:45 م;-1.7;-24.84;14.13;5.24;4.4;-0.02
11:56:46 م;-17.68;-7;6.69;8.73;-2.25;0.01
11:56:46 م;0.8;1.62;-1.62;0.27;3.24;0.03
11:56:46 م;1.24;-19.53;-2.63;-8.73;0.14;0.04
11:56:46 م;3.52;-25.99;10.21;-0.43;4.83;-0.01
11:56:46 م;-11.6;-18.45;4.36;8.73;1.91;-0.01
11:56:46 م;-0.14;1.73;-0.34;1.81;-0.32;0.03
11:56:46 م;-5.53;-6.49;-9.67;-8.73;5.12;0.03
11:56:46 م;10.31;-25.72;12.67;-1.5;4.49;0
11:56:46 م;-5.54;-21.39;10.39;8.73;1.95;-0.01
11:56:46 م;-7.9;1.68;-0.97;4.08;-1.49;0.02
11:56:47 م;1.71;1.82;-7.35;-5.59;6.32;0.02
11:56:47 م;13.58;-24.37;7.48;-8.08;-2.63;0.03
11:56:47 م;0.95;-25.88;13.16;7.65;3.16;-0.02
11:56:47 م;-14.23;-1.05;-0.98;7.8;-2.1;0.01
11:56:47 م;2.6;1.61;1.65;0.46;4;0.03
11:56:47 م;-0.65;-20.76;-5.43;-8.73;0.84;0.03
11:56:47 م;8.73;-31.32;18.38;1.87;5.09;-0.02
11:56:47 م;-17.81;-8.01;1.76;8.73;-0.9;0
11:56:47 م;7.58;1.37;3.28;2.71;2.44;0.02
11:56:48 م;-2.27;-4.3;-9.5;-8.5;8.73;0.02
11:56:48 م;18.73;-30.89;18.44;-6.92;2.15;0
11:56:48 م;-12.99;-22.53;5.72;8.73;3.54;-0.02
11:56:48 م;1.03;1.67;-4.16;4.68;-1.28;0.03
11:56:48 م;0.85;-0.18;-5.88;-4.15;6.96;0.02
11:56:48 م;11.43;-22.69;6.65;-8.36;1.74;0.01
11:56:48 م;-4.35;-25.75;15.79;6.55;4.59;-0.02
11:56:48 م;-14.82;-3.29;-1.52;8.39;-0.22;0.02
11:56:48 م;4.13;1.37;-3.55;0.33;7.49;0.03
11:56:48 م;13.46;-26.85;8.03;-8.73;-1.23;0.03
11:56:49 م;-1.18;-25.01;14.68;5.73;3.88;-0.02
11:56:49 م;-15.57;-5.09;5.2;8.73;-2.01;0.01
11:56:49 م;5.72;1.77;-2.27;1;3.16;0.02
11:56:49 م;-1.62;-6.81;-5.45;-8.73;5.91;0.02
11:56:49 م;7.07;-28.4;18.48;-7.74;2.5;0
11:56:49 م;-5.86;-27.01;7.46;8.73;-1.7;-0.01
11:56:49 م;-6.62;1.04;-2.37;2.67;-1.42;0.03
11:56:49 م;4.81;-0.53;-4.31;-3.34;6.63;0.02
11:56:49 م;6.23;-20.11;5.35;-8.73;2.52;0.01
11:56:50 م;2.96;-22.91;10.38;3.51;5.64;-0.02
11:56:50 م;-9.63;-5.88;-3.33;8.73;-1.95;0.02
11:56:50 م;7.61;1.53;-3.9;1.69;5.32;0.03
11:56:50 م;1.97;-14.54;-1.67;-8.73;2.69;0.02
11:56:50 م;6.25;-24.12;19.03;-2.75;1.43;0
11:56:50 م;-12.37;-22.8;7.87;8.73;1.05;-0.02
11:56:50 م;-0.45;0.53;-5.64;-0.7;0.75;0.03
11:56:50 م;4.23;-12.79;0.89;-8.73;1.51;0.03
11:56:50 م;8.16;-22.48;19.28;1.67;2.29;-0.01
11:56:50 م;-16.18;-11.29;5.59;8.73;-0.38;0
11:56:51 م;3.58;0.62;-1.85;1.23;2.29;0.03
11:56:51 م;1.07;-20.31;-1.59;-8.73;0.25;0.03
11:56:51 م;6.69;-26.47;16.12;-0.6;2.71;-0.01
11:56:51 م;-13.61;-13.87;0.62;8.73;0.92;-0.01
11:56:51 م;-1.92;0.21;2.41;0.43;0.15;0.03
11:56:51 م;8.9;-0.17;2.57;1.63;3.29;0.02
11:56:51 م;9.13;-9.6;3.3;-6.42;1.76;0.02
11:56:51 م;7.12;-18.59;20.96;-1.9;1.29;-0.01
11:56:51 م;-19.78;-6.52;-2.15;8.73;-0.18;0.01
11:56:52 م;3.52;-1.77;-3.11;-1.28;5.32;0.04
11:56:52 م;16.72;-19.24;3.86;-7.86;0.26;0.02
11:56:52 م;-1.58;-20.63;9.67;4.61;3.4;-0.04
11:56:52 م;-5.67;-2.24;3.65;5.2;-3.26;0.03
11:56:52 م;4.43;-2.49;-4.47;-0.73;3.44;0.04
11:56:52 م;13.25;-20.7;2.45;-7.23;2.75;0.03
11:56:52 م;-0.16;-28.14;23.41;5.78;2.38;-0.02
11:56:52 م;-12.21;-3.51;-3.28;7.71;-1.24;0.01
11:56:52 م;6.52;1.41;0.45;2.83;1.09;0.03
11:56:52 م;10.19;1.06;5.43;0.25;1.82;0.02
11:56:53 م;4.77;-10.6;2.32;-8.73;2.44;0.01
11:56:53 م;7.57;-30.83;36.55;3.71;1.17;-0.02
11:56:53 م;-16.31;-1.92;-5.78;8.73;-1.32;0.02
11:56:53 م;1.31;-2.13;-9.42;-4.71;8.42;0.03
11:56:53 م;14.91;-19.76;6.18;-4.22;5.69;0.01
11:56:53 م;5.38;-23.35;19.99;6.76;2.16;-0.02
11:56:53 م;-12.76;-1.41;-4.92;7.46;-2.1;0.02
11:56:53 م;3.58;1.75;-4.28;-0.69;5.39;0.03
11:56:53 م;-0.17;-23.26;1.02;-8.73;0.05;0.03
11:56:54 م;8.69;-29.9;20.25;4.34;4.09;-0.02
11:56:54 م;-18.19;-7.83;2.58;8.73;-1.71;0
11:56:54 م;6.44;1.22;-3.23;2.98;2.58;0.03
11:56:54 م;2.49;-5.17;-3.11;-5.23;5.91;0.03
11:56:54 م;5.7;-19.08;17.6;-7.33;3.06;0.01
11:56:54 م;-3.18;-20.57;17.99;7.42;2.29;-0.02
11:56:54 م;-13.88;-2.65;6.76;7.78;-2.59;0.02
11:56:54 م;3.38;1.47;-7.79;-2.97;6.4;0.03
11:56:54 م;5.18;-16.84;3.37;-8.73;2.77;0.03
11:56:55 م;8.07;-24.41;18.43;-3.3;2.59;-0.01
11:56:55 م;-12.46;-21.66;2.57;8.73;3.37;-0.02
11:56:55 م;1.37;0.85;-4.64;3.2;-0.9;0.03
11:56:55 م;-1.47;-1.49;-6.72;-4.68;8.05;0.03
11:56:55 م;6.5;-25.43;13.39;-8.69;2.22;0.01
11:56:55 م;-5.03;-27.02;10.99;8.73;5.33;-0.03
11:56:55 م;-10.34;-3.51;2.93;7.79;-3.79;0.03
11:56:55 م;4.62;1.39;-3.21;0.6;4.08;0.03
11:56:55 م;0.47;-11.52;-1.67;-8.73;4.56;0.02
11:56:55 م;4.29;-24.21;20.67;-3.49;2.97;-0.01
11:56:56 م;-10.24;-19.23;5.84;8.73;2.1;-0.02
11:56:56 م;-4.13;0.79;4.04;4.63;-0.88;0.03
11:56:56 م;3.76;2.26;-0.1;-0.14;4.24;0.02
11:56:56 م;0.89;-8.51;-1.02;-8.73;5.22;0.01
11:56:56 م;11.25;-25.46;31;-2.82;3.99;-0.01
11:56:56 م;-16.55;-11.3;2.58;8.73;0;-0.01
11:56:56 م;-0.05;1.65;1.62;3.32;2.01;0.03
11:56:56 م;-0.34;-3.31;-6.81;-6.52;7.63;0.02
11:56:56 م;8.46;-20.31;13.81;-7.6;2.48;0.01
11:56:57 م;-2.63;-23.04;15.23;8.73;2.67;-0.02
11:56:57 م;-12.65;-0.36;0.07;6.68;-3.43;0.03
11:56:57 م;5.15;2.81;-1.96;1.32;2.89;0.02
11:56:57 م;-3.32;-9.52;-5.35;-8.73;7.43;0.02
11:56:57 م;17.25;-27.42;33.11;-1.99;5.27;-0.01
11:56:57 م;-23.54;-17.15;0.78;8.73;-2.1;0.01
11:56:57 م;-0.98;1.94;2.66;4.67;1.28;0.03
11:56:57 م;-2.77;-1.78;-7.85;-6.49;8.73;0.02
11:56:57 م;8.92;-19.91;11.42;-6.86;3.01;0.01
11:56:57 م;1.93;-19.68;12.39;3.25;4.4;-0.02
11:56:58 م;-14.45;-6.64;3.91;8.73;-1.21;0.01
11:56:58 م;-0.2;1.73;3.23;3.95;1.63;0.03
11:56:58 م;-4.12;-9.32;-9.35;-8.73;7.86;0.03
11:56:58 م;9.84;-24.03;13.79;-2.18;5.1;0
11:56:58 م;-10.46;-23.35;13.23;8.73;2.52;-0.02
11:56:58 م;-5.1;1.27;-4.12;4.2;-0.86;0.03
11:56:58 م;-3.09;-3.26;-10.53;-7.01;8.73;0.02
11:56:58 م;14.31;-26.58;17.29;-4.85;4.85;0.01
11:56:58 م;-4.7;-22.63;12.9;8.73;2.92;-0.02
11:56:59 م;-12.94;1.07;-2.84;7.58;-2.38;0.03
11:56:59 م;4.7;1.1;-6.15;-1.45;6.37;0.03
11:56:59 م;10.36;-19.89;6;-8.73;2.71;0.03
11:56:59 م;2.39;-23.08;20.24;2.93;3.02;-0.02
11:56:59 م;-15.43;-8.36;-0.18;8.73;-0.95;0.01
11:56:59 م;2.48;0.52;-2.5;-0.24;4.65;0.03
11:56:59 م;14.62;-33.41;5.1;-8.73;-0.29;0.03
11:56:59 م;-3.86;-24.4;8.38;5.07;4.9;-0.01
11:56:59 م;-13.33;-8.08;-0.79;8.73;0.61;0
11:56:59 م;4.66;1.02;1.61;1.7;1.65;0.03
11:57:00 م;-2.4;-11.42;-4.31;-8.73;3.61;0.03
11:57:00 م;7.88;-25.91;14.88;-1.28;4.51;0
11:57:00 م;-10.76;-20.44;8.71;8.73;0.81;-0.01
11:57:00 م;-5.69;1.86;0.77;3.35;-0.59;0.03
11:57:00 م;3.83;-0.21;-0.43;-1.64;5.14;0.02
11:57:00 م;0.39;-12.41;4.81;-8.73;2.07;0.02
11:57:00 م;8.26;-22.07;12.69;0.34;5.08;-0.01
11:57:00 م;-8.44;-13.73;7.8;8.73;-1.04;0
11:57:00 م;-0.99;2.67;-1.15;3.76;0.73;0.02
11:57:01 م;2.16;-1.65;-4.88;-3.68;7.2;0.03
11:57:01 م;6.19;-17.36;10.38;-8.73;0.25;0.02
11:57:01 م;2.91;-20.16;17.62;8.29;1.98;-0.02
11:57:01 م;-11.93;1.65;-1.87;5.97;-1.75;0.02
11:57:01 م;1.28;1.39;-6.5;-2.92;6.29;0.03
11:57:01 م;12.03;-18.3;10.42;-7.42;1.1;0.02
11:57:01 م;0.01;-15.31;12.63;3.51;2.06;-0.01
11:57:01 م;-6.99;-3.35;-1.77;1.8;0.43;0
11:57:01 م;-2.27;-4.51;12.86;0.68;-1.06;0.02
11:57:01 م;-2.41;-1.26;0.08;0.95;2.76;0.02
11:57:02 م;11.64;-17.31;8.1;-6.67;5.57;0.01
11:57:02 م;-6.58;-18.19;15.1;7.53;2.51;-0.01
11:57:02 م;-8.51;0.68;-4.26;7.86;-1.9;0.03
11:57:02 م;-3.3;-3.89;-9.81;-5.3;7.47;0.03
11:57:02 م;11.47;-17.25;8.32;-3.29;5.5;0.01
11:57:02 م;-5.49;-19.18;20.45;6.57;-0.05;-0.01
11:57:02 م;-13.03;-0.96;-2.6;8.73;-1.33;0.02
11:57:02 م;2.86;-0.69;-4.45;-1.85;6.3;0.03
11:57:02 م;10.88;-22.73;6.36;-8.73;0.92;0.03
11:57:03 م;-0.29;-19.36;12.28;1.19;3;-0.01
11:57:03 م;-17.74;-18.25;6.1;8.73;-1.18;0
11:57:03 م;6.68;-1.6;2.27;3.23;1.86;0.03
11:57:03 م;10.44;-9.47;-5.18;-7.99;3.05;0.02
11:57:03 م;-0.33;-20.55;14.56;-2.86;5.84;-0.02
11:57:03 م;-11.17;-14.81;13.53;8.73;0.17;0.02
11:57:03 م;-0.42;-3.67;-4;0.94;2.73;0.03
11:57:03 م;5.91;-14.9;-1.18;-8.73;4.58;0.02
11:57:03 م;-1.34;-22.18;15.77;4.32;7.89;-0.02
11:57:03 م;-15.09;-6.21;-0.43;8.73;-0.95;0.03
11:57:04 م;7.82;-3.07;-5.48;-0.72;0.49;0.04
11:57:04 م;2.65;-17.91;2.32;-8.73;4.34;0.02
11:57:04 م;-1.46;-21.03;10.33;4.17;8.3;-0.01
11:57:04 م;-16.69;-12.57;5.49;8.73;-0.33;0.02
11:57:04 م;-1.21;-4.7;-2.68;-0.43;2.22;0.04
11:57:04 م;6.42;-16.35;1.32;-8.73;5.64;0.02
11:57:04 م;12.36;-20.04;7.94;4.89;6.37;-0.01
11:57:04 م;-16.09;-10.7;12.06;8.73;-4.51;0.02
11:57:04 م;0.83;-1.88;-2.87;3.63;2.34;0.03
11:57:05 م;3.07;-8.04;-2.77;-8.18;6.37;0.02
11:57:05 م;5.09;-18.38;8.87;-4.6;5.14;0
11:57:05 م;-3.33;-15.99;14.79;8.73;1.25;-0.01
11:57:05 م;-4.4;-0.81;-2.98;4.89;-0.64;0.03
11:57:05 م;-0.56;-4.85;-5.12;-6.09;6.73;0.03
11:57:05 م;9.7;-20.75;8.62;-7.67;4.81;0.01
11:57:05 م;-0.49;-18.52;15.37;6.73;0.86;-0.02
11:57:05 م;-9.18;-6.43;-2.82;8.73;-1.36;0.02
11:57:05 م;1.09;-1.24;-5;-0.85;5.94;0.03
11:57:05 م;11.87;-16.64;6.37;-8.73;5.31;0.01
11:57:06 م;-2.98;-19.9;21.25;2.18;1.86;-0.02
11:57:06 م;-9.54;-8.91;1.82;8.73;-1.15;0.01
11:57:06 م;-0.22;-1.13;-0.19;3.13;1.18;0.03
11:57:06 م;5.28;-11.27;-3.62;-7.55;5.21;0.03
11:57:06 م;16.04;-23.51;17.03;-1.61;5.83;-0.01
11:57:06 م;-14.74;-9.12;11.75;7.3;-2.85;0
11:57:06 م;-2.94;-2.76;6.73;4.98;0.85;0.02
11:57:06 م;1.02;-0.76;-0.06;0.38;2.09;0.03
11:57:06 م;6.07;-12.87;0.08;-8.73;5.05;0.01
11:57:07 م;2.85;-20.85;20.62;1.3;3.41;-0.01
11:57:07 م;-16.36;-9.17;2.02;8.73;-1.28;0.01
11:57:07 م;-2.01;0.33;-0.2;2.48;3.3;0.02
11:57:07 م;2.79;-8.47;-1.95;-8.13;4.09;0.03
11:57:07 م;7.86;-20.27;13.52;-5.22;4.38;0
11:57:07 م;-8.62;-18.39;17.53;7.61;0.06;-0.01
11:57:07 م;-6.36;-1.66;0.63;5.45;0.61;0.02
11:57:07 م;2.77;-1.34;-3.2;-1.64;2.45;0.03
11:57:07 م;8.82;-14.3;6.38;-7.66;3.27;0.02
11:57:08 م;-2.67;-17.81;23.34;-0.81;0.61;-0.01
11:57:08 م;-11.65;-10.77;6.56;8.73;0.13;0
11:57:08 م;0.8;-0.97;0.85;2.3;1.58;0.03
11:57:08 م;3.86;-4.71;-0.84;-4.02;4.77;0.03
11:57:08 م;5.68;-17.91;9.11;-7.53;2.64;0
11:57:08 م;-5.59;-22.75;18.61;8.73;1.56;-0.02
11:57:08 م;-8.72;-2.2;-0.36;6.66;-1.25;0.03
11:57:08 م;1.97;-0.89;-2.24;-1.71;5.69;0.03
11:57:08 م;4.74;-16.97;2.8;-8.73;3.51;0.02
11:57:08 م;-0.1;-21.17;17.66;1.22;2.39;-0.02
11:57:09 م;-15.02;-14.08;9.51;8.73;-0.84;0
11:57:09 م;0.44;-0.39;-0.12;1.87;1.94;0.02
11:57:09 م;1.26;-4.56;-4.47;-6.28;6.25;0.02
11:57:09 م;6.64;-20.88;9.41;-7.4;3.82;0
11:57:09 م;-0.89;-20.6;14.66;7.22;2.58;-0.02
11:57:09 م;-8.21;-4.38;-0.55;7.93;-1.13;0.03
11:57:09 م;3.68;-0.35;-2.49;-0.87;4.15;0.03
11:57:09 م;3.98;-16.06;2.21;-8.73;2.71;0.02
11:57:09 م;4.26;-21.38;17.32;-0.14;1.64;-0.01
11:57:10 م;-14.02;-12.68;2.38;8.73;0.32;0
11:57:10 م;0.4;-1.08;0.33;2.58;0.94;0.03
11:57:10 م;1.46;-4.66;-4.28;-4.85;4.98;0.03
11:57:10 م;8.66;-18.4;13.36;-6.58;3.49;0
11:57:10 م;-5.7;-17.94;12.02;7.51;2.38;-0.02
11:57:10 م;-3.95;-1.53;-0.52;5.34;-0.5;0.03
11:57:10 م;0.53;0.51;-1.52;0.47;3.53;0.03
11:57:10 م;0.35;-14.6;2.17;-8.73;3.7;0.02
11:57:10 م;5.9;-23.59;18.35;-2.27;3.02;-0.01
11:57:10 م;-11.5;-17.71;3.25;8.73;0.8;-0.01
11:57:11 م;-1.85;-1.69;-1.41;3.85;0.85;0.03
11:57:11 م;1.05;-2.7;-4.27;-4.6;5.21;0.03
11:57:11 م;4.29;-18.65;9.69;-6.9;3.35;0.01
11:57:11 م;-1.43;-21.09;16.54;3.87;2.11;-0.02
11:57:11 م;-11.61;-7.53;1.93;8.58;-1.03;0.01
11:57:11 م;1.22;-0.26;-1.83;2.23;1.31;0.03
11:57:11 م;0.88;-8;-1.26;-7.68;5.21;0.02
11:57:11 م;6.21;-21.4;15.54;-5.84;1.13;0
11:57:11 م;-7.36;-21.3;9.99;8.73;2.85;-0.02
11:57:12 م;-5.81;-3.09;-0.93;5.97;-0.84;0.02
11:57:12 م;4.21;-1.43;0.28;-0.89;2.95;0.03
11:57:12 م;3.65;-12.39;4.16;-7.46;3.49;0.01
11:57:12 م;5.06;-19.61;23.82;-2.08;0.91;-0.01
11:57:12 م;-11.65;-8.94;0.21;8.73;-0.89;0
11:57:12 م;1.17;-0.28;-0.29;1.41;1.7;0.03
11:57:12 م;-2.37;-8.2;-3.34;-6.8;4.85;0.02
11:57:12 م;9.61;-25.47;26.45;-6.43;1.28;0
11:57:12 م;-19.01;-16.48;-0.16;8.73;0.29;-0.01
11:57:12 م;1.76;-0.9;-0.74;1.6;1.63;0.03
11:57:13 م;-0.02;-7.12;-4.58;-7.82;3.04;0.03
11:57:13 م;5.03;-19.69;10.76;-3.68;4.38;0
11:57:13 م;-5.25;-19.67;12.95;7.91;2.01;-0.02
11:57:13 م;-7.93;-2.18;-0.87;5.54;-0.73;0.02
11:57:13 م;5.34;-1.23;-0.41;0.92;3.15;0.03
11:57:13 م;1.85;-14.91;3.14;-8.73;2.56;0.02
11:57:13 م;5.74;-20.4;17.57;0.05;2.13;-0.01
11:57:13 م;-11.78;-8.44;2.13;8.73;-0.09;0
11:57:13 م;-0.56;-1.46;1.41;1.95;1.6;0.03
11:57:14 م;-2.27;-9.26;-4.22;-8.33;3.75;0.03
11:57:14 م;7.34;-21.36;15.05;-3.67;3.14;0
11:57:14 م;-7.35;-15.26;6.81;8.73;1.29;-0.01
11:57:14 م;-3.84;-1.7;-1.13;5.12;-0.27;0.02
11:57:14 م;3.95;-0.97;-1.45;-1.92;3.84;0.03
11:57:14 م;9.04;-18.73;9.15;-8.73;0.92;0.02
11:57:14 م;-2.73;-18.84;14.03;6.5;2.37;-0.01
11:57:14 م;-5.98;-2.59;2.02;5.94;-1.17;0.02
11:57:14 م;2.35;-0.85;0.31;0.68;2.54;0.03
11:57:14 م;2.26;-16.61;0.65;-8.73;0.53;0.02
11:57:15 م;2.93;-19.79;12.63;1.1;2.91;-0.01
11:57:15 م;-8.27;-10.71;3.8;8.73;-0.34;0
11:57:15 م;-1.93;-0.88;2.02;1.93;1.47;0.03
11:57:15 م;-2.83;-7.3;-5.01;-7.95;4.77;0.03
11:57:15 م;9.56;-22.19;19.07;-4.05;3;0
11:57:15 م;-12.22;-13.2;4.45;8.15;1.54;-0.01
11:57:15 م;0.77;-1.24;-0.06;5.49;-0.97;0.03
11:57:15 م;2.09;-0.31;-3.66;-2.66;5.31;0.03
11:57:15 م;7.62;-19.75;6.26;-8.73;1.93;0.01
11:57:16 م;-0.39;-22.73;19.69;7.02;1.85;-0.02
11:57:16 م;-10.01;-3.4;-0.59;8.13;-1.27;0.02
11:57:16 م;0.19;-1.01;0.36;-0.26;5.06;0.03
11:57:16 م;3.49;-20.19;1.04;-8.73;0.59;0.02
11:57:16 م;3.54;-23.62;16.22;2.25;3.4;-0.02
11:57:16 م;-12.03;-7.64;2.03;8.73;-1.5;0.01
11:57:16 م;-0.04;-0.66;0.45;1.67;1.36;0.03
11:57:16 م;-0.28;-6.8;-2.8;-6.39;4.77;0.02
11:57:16 م;7.53;-20.69;16.46;-5.48;1.83;0
11:57:16 م;-8.63;-17.1;7.37;8.46;2.23;-0.02
11:57:17 م;-4.74;-1.74;0.81;4.76;-1.41;0.02
11:57:17 م;1.49;-0.05;-1.06;1.01;4.27;0.03
11:57:17 م;5.13;-21.29;2.62;-8.73;1.34;0.02
11:57:17 م;3.19;-25.65;16.77;5.18;3.35;-0.02
11:57:17 م;-13.29;-5.36;1.27;8.62;-1.18;0.01
11:57:17 م;1.43;-1.37;1.24;1.23;2.99;0.03
11:57:17 م;1.43;-15.03;-1.01;-8.73;1.66;0.03
11:57:17 م;4.11;-21.63;12.43;-1.06;3.46;-0.01
11:57:17 م;-9.29;-16.25;7.03;8.73;0.84;-0.01
11:57:18 م;-1.6;-0.47;0.98;6.24;-1.31;0.03
11:57:18 م;2.23;1.63;-6.43;-2.6;7.07;0.02
11:57:18 م;6.9;-22.35;4.44;-8.73;1.69;0.02
11:57:18 م;0.25;-25.9;18.61;5.14;3.07;-0.02
11:57:18 م;-12.1;-4.89;-3.11;8.73;-1.44;0.01
11:57:18 م;0.28;-0.55;0.64;1.8;3.44;0.03
11:57:18 م;-4.81;-12.28;-4.56;-8.73;4.7;0.03
11:57:18 م;10.36;-27.27;17.79;-3.03;3.5;-0.01
11:57:18 م;-13.71;-20.88;7.44;8.73;0.29;-0.02
11:57:19 م;-3.48;-1.05;0.96;4.87;0.5;0.03
11:57:19 م;2.56;-10.08;-6.53;-8.72;2.21;0.05
11:57:19 م;8.12;-20.75;8.08;-1.82;4.84;0.01
11:57:19 م;-6.92;-21.65;16.74;8.73;0.8;-0.02
11:57:19 م;-12;0.28;-1.9;5.49;-1.03;0.03
11:57:19 م;-1.95;-7.52;-7.74;-7.86;4.98;0.04
11:57:19 م;13.13;-19.71;6.22;-2.69;5.2;0.01
11:57:19 م;-4.17;-18.35;14.77;8.05;1.57;-0.02
11:57:19 م;-10.51;-5.49;5.67;7.96;-2.58;0.03
11:57:19 م;3.75;-0.96;1.5;1.06;2.57;0.02
11:57:20 م;6.48;-21.67;4.25;-8.73;-0.88;0.02
11:57:20 م;0.07;-18.85;14.1;6.6;4.59;-0.01
11:57:20 م;-8.62;-5.16;4.58;5.3;-3.42;0.03
11:57:20 م;2.88;-2.59;1.8;0.71;1.74;0.02
11:57:20 م;9.24;-17.05;2.77;-8.73;3.65;0.01
11:57:20 م;-1.6;-15.22;8.81;4.5;3.3;0
11:57:20 م;-7.05;-7.81;5.93;7.13;-1.18;0.02
11:57:20 م;2.2;-1.22;-2.48;-0.63;1.55;0.03
11:57:20 م;9.58;-17.29;8.75;-7.15;3.16;0.01
11:57:21 م;-3.06;-20.99;12.45;6.81;4.92;-0.02
11:57:21 م;-10.67;-2.41;-0.62;7.53;-2.61;0.02
11:57:21 م;1.83;-8.34;-5.43;-5.4;3.01;0.04
11:57:21 م;10.54;-17.1;6.55;-7.87;4.62;0.01
11:57:21 م;-4.6;-20.63;11.5;7.53;4.81;-0.01
11:57:21 م;-12.39;-6.76;3.84;6.35;-2.47;0.03
11:57:21 م;0.06;-6.91;-5.73;-7.08;2.67;0.03
11:57:21 م;6.92;-19.1;6.96;-5.69;5.69;0
11:57:21 م;-2.12;-11.33;6.54;8.73;0.83;0
11:57:21 م;-7.77;-8.63;-6.81;8.73;-1.83;0.04
11:57:22 م;4;-7.04;-3.59;-7.33;4.22;0.03
11:57:22 م;3.42;-26.13;15.67;-2.61;6.23;-0.01
11:57:22 م;-17.06;-6.54;-3.49;8.73;-1.98;0.02
11:57:22 م;4.49;-9.43;-6.32;-8.65;1.85;0.04
11:57:22 م;6.76;-24.9;19.43;-1.33;4.32;-0.01
11:57:22 م;-7.81;-3.33;-2.6;7.62;-0.18;0.03
11:57:22 م;13.04;-14.46;-8.64;-8.73;-1.49;0.03
11:57:22 م;1.37;-26.01;14.93;3.61;4.76;-0.02
11:57:22 م;-11.71;-1.5;-2.51;6.15;-0.09;0.03
11:57:23 م;2.63;-9.8;-7.31;-8.73;3.07;0.04
11:57:23 م;8.29;-23.14;8.9;-3.17;5.87;-0.01
11:57:23 م;-4.04;-12.34;7.06;8.73;0.01;0.01
11:57:23 م;1.12;-4.74;1.59;1.3;-0.55;0.04
11:57:23 م;4.32;-10.06;3.41;-8.47;1.78;0.02
11:57:23 م;3.13;-17.15;5.71;-1.82;4.37;0
11:57:23 م;-0.01;-15.08;10.81;8.72;1.54;0
11:57:23 م;-1.48;-1.67;-0.27;4.25;-2.84;0.03
11:57:23 م;0;-4.84;-5.13;-5.85;3.54;0.03
11:57:23 م;11.21;-20.66;11.77;-5.27;4.82;0
11:57:24 م;-3.45;-13.26;5.92;8.25;3.16;-0.01
11:57:24 م;-1.55;-3.03;1.67;5.4;-2.61;0.03
11:57:24 م;4.38;-1.18;-3.63;-2.46;2.81;0.03
11:57:24 م;8.09;-16.65;8.34;-7.99;2.13;0.01
11:57:24 م;0.5;-18.26;10.24;6.44;4.55;-0.01
11:57:24 م;-15.15;-5.31;6.55;7.89;-1.64;0.01
11:57:24 م;2.47;-0.81;1.07;1.77;1.47;0.03
11:57:24 م;3.59;-6.48;-3.3;-8.31;4.14;0.02
11:57:24 م;4.51;-20.9;13.19;-4.51;4.1;0
11:57:25 م;-10.84;-15.9;10.42;8.73;2.09;0
11:57:25 م;-1;0.05;-2.37;3.94;-1.16;0.03
11:57:25 م;2.98;-1.53;-6.43;-3.47;5.02;0.02
11:57:25 م;8.43;-17.99;10.3;-8.41;4.04;0.01
11:57:25 م;1.11;-21.13;12.58;7.89;3.87;-0.01
11:57:25 م;-14.69;-6.31;5.92;7.84;-3.16;0.02
11:57:25 م;3.14;-0.07;-0.46;2.57;2.82;0.02
11:57:25 م;4.6;-12.34;-3.99;-8.73;2.55;0.02
11:57:25 م;1.29;-20.32;13.09;1.85;5.06;0
11:57:25 م;-12.43;-13.26;11.44;7.97;1.81;0
11:57:26 م;-1.21;-2.13;0.95;3.62;-0.84;0.03
11:57:26 م;2.41;-1.63;-7.68;-4.79;4.26;0.02
11:57:26 م;9.68;-19.18;11.84;-4.74;5.49;0.01
11:57:26 م;-7.96;-15.4;13.86;6.85;0.72;-0.01
11:57:26 م;-6.73;-4.31;4.5;8.16;-2.46;0.02
11:57:26 م;3.44;-0.44;-0.6;0.01;2.6;0.03
11:57:26 م;6.81;-13.81;1.22;-8.73;2.33;0.02
11:57:26 م;3.53;-20.15;12.61;3.79;5.04;-0.01
11:57:26 م;-13.84;-9.32;10.97;7.92;-1.22;0.01
11:57:27 م;-1.89;-0.34;2.88;2.54;0.89;0.02
11:57:27 م;-0.48;-4.28;-8.05;-6.57;4.28;0.03
11:57:27 م;8.23;-21.13;14.06;-4.22;5.81;0
11:57:27 م;-10.82;-15.05;10.27;8.73;1.12;0
11:57:27 م;-2.21;-1.39;1.81;3.29;-0.55;0.02
11:57:27 م;2.96;1.48;0.44;1.19;2.55;0.02
11:57:27 م;4.97;-17.24;3.24;-8.73;2.21;0.02
11:57:27 م;-0.34;-20.67;9.82;2.01;5.31;-0.01
11:57:27 م;-12.44;-7.69;6.37;8.73;-0.64;0.01
11:57:27 م;-1.41;-1.04;3.01;2.21;0.48;0.03
11:57:28 م;-2.55;-7.1;-8.74;-8.35;5.07;0.02
11:57:28 م;6.24;-20.97;13.68;-2.07;5.6;0
11:57:28 م;-8.07;-14.85;11.03;7.17;1.02;-0.01
11:57:28 م;-6.44;-1.62;-0.38;6.66;-0.9;0.02
11:57:28 م;-0.32;-0.6;-4.56;-1.92;6.29;0.02
11:57:28 م;10.21;-19.3;10.33;-8.73;3.91;0.01
11:57:28 م;-2.08;-18.84;15.7;5.93;1.61;-0.01
11:57:28 م;-11.43;-4.4;3.29;8.73;-2.34;0.02
11:57:28 م;0.64;0.07;1.31;1.61;3.09;0.03
11:57:29 م;5.53;-13.45;0.43;-8.73;1.62;0.02
11:57:29 م;-1.92;-17.82;12.96;-0.79;2.93;0
11:57:29 م;-8.5;-11.38;9.45;8.73;1.09;0
11:57:29 م;0.44;-0.69;-0.13;5.01;0.63;0.03
11:57:29 م;-1.35;-11.06;-3.84;-8.73;1.06;0.03
11:57:29 م;7.54;-19.95;6.73;-2.58;5.97;0
11:57:29 م;-13.26;-15.59;14.42;8.73;0.8;-0.01
11:57:29 م;-1.65;-4.95;-3.45;3.03;-0.74;0.04
11:57:29 م;4.7;-8.53;-7.6;-7.24;4.51;0.02
11:57:29 م;3.53;-24.69;10.34;-4.08;7.09;-0.01
11:57:30 م;-2.09;-18.56;10.76;8.73;1.64;0
11:57:30 م;0.9;-0.98;-4.89;3.97;-2.78;0.04
11:57:30 م;12.47;-7.24;-7.48;-5.3;1.26;0.03
11:57:30 م;7.37;-21.33;9.84;-7.93;6.41;0
11:57:30 م;-9.52;-13.94;14.74;8.56;2.9;0
11:57:30 م;3.05;-1.62;-3.87;3.63;1.18;0.04
11:57:30 م;7.07;-14.09;-1.61;-8.73;2.58;0.03
11:57:30 م;2.15;-20.13;14.43;-0.17;5.48;-0.01
11:57:30 م;-14.43;-12.51;13.05;8.73;-1.06;0
11:57:31 م;0.99;-1.4;-0.69;1.84;0.94;0.02
11:57:31 م;5.5;-3.24;-5.67;-4.48;2.78;0.02
11:57:31 م;5.99;-21.45;11.33;-8.73;4.8;0
11:57:31 م;-2.95;-15.06;12.93;8.66;2.73;-0.01
11:57:31 م;-4.2;-0.85;-4.87;5.03;-1.27;0.03
11:57:31 م;5.63;-1.92;-6.26;-2.2;4.88;0.03
11:57:31 م;3.28;-21.98;11.94;-8.73;5.06;0
11:57:31 م;-6.54;-15.01;14.82;7.87;3.34;-0.02
11:57:31 م;1.98;-2.33;-4.96;2.58;-1.52;0.03
11:57:32 م;7.07;-1.96;2.49;-0.64;1.67;0.02
11:57:32 م;1.79;-14.16;4.68;-8.73;4.6;0
11:57:32 م;9.03;-15.7;18.12;3.67;0.7;0
11:57:32 م;-8.38;-3.03;2.04;4.28;-2.34;0.03
11:57:32 م;2.79;-2.81;-5.59;-0.91;2.12;0.03
11:57:32 م;7.58;-18.84;9.98;-8.73;4.9;0
11:57:32 م;-4.29;-14.18;9.46;7.26;2.27;0
11:57:32 م;-5.34;-2.41;0.84;6.05;-0.82;0.03
11:57:32 م;3.19;-3.3;-6.84;-4.8;3.38;0.03
11:57:32 م;9.64;-19.1;8.93;-6.01;3.91;0.01
11:57:33 م;-4.92;-17.36;11.14;8.73;3.29;-0.01
11:57:33 م;-7.45;-1.58;3.22;6.16;-1.89;0.03
11:57:33 م;0.85;-0.48;-5;-1.31;4.48;0.02
11:57:33 م;12.07;-21.33;9.02;-8.73;4.08;0
11:57:33 م;1.86;-17.16;8.3;8.73;4.01;-0.01
11:57:33 م;-2.77;-0.17;1.53;3.42;-2.76;0.03
11:57:33 م;2.33;-1.01;-3.55;-3.11;3.2;0.02
11:57:33 م;9.14;-19.73;7.73;-8.73;3.23;0.01
11:57:33 م;-3.52;-18.1;12.96;5.04;1.9;-0.01
11:57:34 م;-7.43;-6.98;0.31;8.73;-1.4;0.02
11:57:34 م;3.37;-0.33;-0.03;1.38;4.83;0.03
11:57:34 م;7.49;-14.7;3.06;-8.73;0.86;0.02
11:57:34 م;0.66;-21.81;22.68;4.33;1.6;-0.01
11:57:34 م;-18.88;-7.7;6.62;8.73;-0.84;0.01
11:57:34 م;2.91;-1.21;1.05;1;4.89;0.03
11:57:34 م;2.68;-11.43;-0.71;-8.33;3.66;0.02
11:57:34 م;2.44;-24.28;26.46;-5.26;1.96;-0.01
11:57:34 م;-14.25;-13.77;5;8.73;1.11;-0.01
11:57:34 م;0.23;-0.24;-2.19;3.55;1.22;0.03
11:57:35 م;1.3;-2.67;-3.92;-3.35;6.75;0.02
11:57:35 م;4.38;-22.91;12.32;-8.73;2.26;0
11:57:35 م;-4.32;-24.91;11.77;8.54;3.68;-0.02
11:57:35 م;-7.16;0.01;-2.45;5.7;-1.39;0.02
11:57:35 م;1.1;-1.31;-1.29;-1.11;5.76;0.03
11:57:35 م;2.43;-14.47;3.26;-8.39;2.21;0.01
11:57:35 م;7.96;-24.75;23.04;2.99;3.54;-0.01
11:57:35 م;-13.53;-6.57;4.58;8.73;-1.85;0
11:57:35 م;-3.83;2.09;-2.82;3.03;3.72;0.02
11:57:36 م;0.86;-8.6;-5.03;-8.49;5.66;0.03
11:57:36 م;5.68;-23.95;10.35;-3.83;5.36;0
11:57:36 م;-7.12;-20.97;14.25;8.4;1.99;-0.02
11:57:36 م;-4.86;-0.95;-2.3;7.06;-2.83;0.02
11:57:36 م;0.59;1.58;-2.74;3.51;5.59;0.02
11:57:36 م;6.31;-15.69;1.55;-8.73;4.56;0.02
11:57:36 م;-3.35;-25.34;27.37;-0.87;-1.02;-0.01
11:57:36 م;-18.91;-14.96;17.97;8.73;-1.68;0.01
11:57:36 م;2.89;-2.37;-3.11;3.34;4.64;0.02
11:57:36 م;5.94;-3.9;-5.15;-3.93;7.62;0.01
11:57:37 م;-4.56;-29.35;22.07;-8.73;0.84;-0.01
11:57:37 م;-19.71;-24.42;10.88;8.73;1.54;-0.02
11:57:37 م;-1.07;-2.69;0.54;3.14;2.08;0.03
11:57:37 م;4.89;-5.47;-1.61;-4.21;5.41;0.03
11:57:37 م;1.87;-17.7;8.11;-5.02;5.76;-0.01
11:57:37 م;-1.87;-22.27;32.77;5.95;-1.12;-0.01
11:57:37 م;-12.09;-0.02;-3.81;5.92;-0.15;0.02
11:57:37 م;1.18;-1.9;-6.36;-2.85;6.12;0.03
11:57:37 م;9.14;-16.32;5.85;-8.32;4.32;0.01
11:57:38 م;-3.65;-21.59;18.1;2.35;3.12;-0.01
11:57:38 م;-13.17;-8.6;4.62;8.73;-0.72;0
11:57:38 م;-0.3;-0.41;-0.23;1.33;1.73;0.03
11:57:38 م;3.51;-7.46;-2.99;-7.76;3.49;0.02
11:57:38 م;4.59;-18.31;10.78;-2.94;4.25;0
11:57:38 م;-5.56;-18.67;15.13;8.73;0.93;-0.01
11:57:38 م;-10.84;-2.24;0.04;5.59;-0.46;0.02
11:57:38 م;3.86;-1.72;-5.63;-1.73;4.61;0.03
11:57:38 م;8.52;-21.29;7.82;-8.73;3.73;0.01
11:57:38 م;-4.62;-21.72;17.98;6.61;1.07;-0.01
11:57:39 م;-10.95;-4.26;-1.2;8.73;-0.25;0.02
11:57:39 م;3.81;-1.35;-0.57;0.39;3.03;0.03
11:57:39 م;4.86;-11.64;1.83;-7.26;3.99;0.02
11:57:39 م;-6.05;-20.09;28.59;-2.07;-0.04;0
11:57:39 م;-12.11;-11.08;6.32;8.73;-0.2;-0.01
11:57:39 م;-1.68;-1.27;0.66;1.29;1.25;0.03
11:57:39 م;-0.79;-10.33;-3.87;-8.48;2.88;0.03
11:57:39 م;2.37;-23.07;15.59;-5.33;3.61;-0.01
11:57:39 م;-9.1;-18.25;11.13;8.73;0.8;-0.01
11:57:40 م;-4.82;-2.2;3.23;5.33;-0.57;0.02
11:57:40 م;1.5;0.63;-2.77;2.2;4.07;0.02
11:57:40 م;3.06;-13.79;-0.51;-8.73;4.97;0.02
11:57:40 م;0.22;-27.84;24.98;-4.03;2.3;-0.01
11:57:40 م;-21.25;-15.33;8.33;8.73;0.87;0
11:57:40 م;3.59;-4.19;0.57;1.26;1.63;0.03
11:57:40 م;6.47;-4.91;-5.51;-3.28;5.34;0.02
11:57:40 م;0.78;-24.12;24.77;-5.05;3.48;-0.02
11:57:40 م;-14.19;-12.59;15.62;8.73;-0.06;0
11:57:40 م;-0.78;-0.59;-1.94;0.68;1.75;0.03
11:57:41 م;5.09;-3.02;-2.56;-1.79;5.47;0.02
11:57:41 م;-6.17;-19.65;10.81;-8.73;0.28;0
11:57:41 م;-0.5;-26.4;16.58;4.48;5.67;-0.02
11:57:41 م;-10.48;-4.91;-6.84;8.73;-2.62;0.03
11:57:41 م;7.93;-6.24;-0.96;-3.03;3.79;0.04
11:57:41 م;1.8;-16.95;6.38;-4.88;3.46;0
11:57:41 م;-3.54;-15.2;21.56;4.74;0.24;-0.01
11:57:41 م;-7.46;-3.63;0.46;8.73;-2.15;0.02
11:57:41 م;5.28;-2.82;-5.02;-2.6;1.83;0.03
11:57:42 م;13.87;-19.12;8.26;-8.73;3.97;0
11:57:42 م;-12.56;-18.05;17;1.02;3.14;-0.01
11:57:42 م;-10.54;-7.76;0.6;8.73;1.06;0.03
11:57:42 م;-0.34;-3.46;-10.12;-4.47;4.42;0.04
11:57:42 م;8.11;-16.64;9.57;-4.55;4.31;0.01
11:57:42 م;-5.36;-19.37;17.15;5.38;2.93;-0.02
11:57:42 م;-9.07;-4;1.16;8.73;-1.32;0.02
11:57:42 م;6.32;-3.24;-1.18;-0.57;1.04;0.04
11:57:42 م;3.08;-12.71;4.61;-8.25;3.56;0.02
11:57:43 م;-3.99;-18.99;18.85;2.79;3.21;-0.02
11:57:43 م;-14.01;-8.04;11.06;8.73;-2.14;0.01
11:57:43 م;-0.14;-1.87;2.08;0.56;1.46;0.03
11:57:43 م;3.28;-9.68;-0.98;-7.59;3.62;0.02
11:57:43 م;0.96;-20.7;18.27;-3.73;3.61;-0.01
11:57:43 م;-11.19;-11.45;9.92;8.4;0.58;0
11:57:43 م;-1.59;-1.03;0.58;3.81;1.37;0.03
11:57:43 م;-0.39;-3.68;-7.33;-4.4;7.63;0.02
11:57:43 م;4.32;-22.63;16.45;-8.73;1.54;0
11:57:43 م;-4.22;-23.47;10.45;7.94;4.4;-0.02
11:57:44 م;-12.07;-1.64;-2.28;5.37;-1.51;0.03
11:57:44 م;2.32;-8.34;-3.46;-5.19;3.87;0.04
11:57:44 م;8.12;-17.45;7.14;-3.79;5.02;0
11:57:44 م;-16.66;-14.47;10.64;8.73;1.56;-0.01
11:57:44 م;4.59;-5.94;2.65;5.43;-2.58;0.03
11:57:44 م;1.96;-6.89;-10.16;-5.59;-0.48;0.03
11:57:44 م;7.23;-21.69;15.81;-1.83;7.69;-0.01
11:57:44 م;-14.43;-3.14;9;7.24;-2.83;0.01
11:57:44 م;3.21;-0.47;0.33;1.21;1.69;0.02
11:57:45 م;20.66;-11.81;1.91;-7.53;0.36;0.02
11:57:45 م;-6.39;-13.06;15.81;5.04;4.38;-0.01
11:57:45 م;-4.75;-4.87;2.6;7.42;-1.9;0.03
11:57:45 م;2.04;-0.92;-1.88;-2.43;4.84;0.02
11:57:45 م;10.91;-17.96;15.55;-8.67;4.85;0
11:57:45 م;-13.08;-16.02;10.68;8.73;2.4;-0.01
11:57:45 م;3.62;1.55;-2.57;0.59;0.43;0.02
11:57:45 م;4.45;-6.88;-4.98;-8.73;2.22;0.02
11:57:45 م;-1.51;-17.63;29.01;-1.33;2.3;-0.01
11:57:45 م;-11.87;-4.49;4.26;8.73;-1.81;0.02
11:57:46 م;7.25;2.82;-0.19;-0.03;2.15;0.02
11:57:46 م;0.79;-2.97;1.19;-5.52;2.77;0.03
11:57:46 م;7.47;-15.68;19.11;-7.49;0.13;0.01
11:57:46 م;-9.24;-8.37;2.3;8.73;0.49;0
11:57:46 م;1.1;-6.32;-4.38;-6.97;-0.33;0.04
11:57:46 م;14.62;-13.11;6.64;-1.51;2.79;0
11:57:46 م;-6.75;-9.31;13.41;8.73;-0.81;-0.01
11:57:46 م;-0.56;0.27;0.41;0.31;0.14;0.03
11:57:46 م;3.16;-15.2;-2.91;-8.73;-0.35;0.03
11:57:47 م;4.44;-21.7;19.38;1.38;3.75;-0.01
11:57:47 م;-15.51;-7.61;3.99;8.73;-0.28;0.01
11:57:47 م;1.7;-3.58;-2.74;-2.39;2.94;0.03
11:57:47 م;12.3;-16.88;7.71;-6.57;2.84;0.02
11:57:47 م;6.29;-16.27;19.12;2.18;0.91;-0.01
11:57:47 م;-12.82;-3.07;2.77;8.44;-1.03;0
11:57:47 م;0.21;1.08;0.63;1.55;2.67;0.03
11:57:47 م;5.24;-8.59;-4.96;-7.06;3.98;0.03
11:57:47 م;6.5;-17.66;14.46;-2.66;4.63;0
11:57:47 م;-3.82;-14.32;8.4;8.73;1.39;-0.01
11:57:48 م;-3.8;1.9;4.06;2.4;-2.02;0.03
11:57:48 م;1.44;1.26;-3.25;-2.5;4.8;0.03
11:57:48 م;12.16;-17.72;7.41;-8.24;1.53;0.02
11:57:48 م;-1.11;-15.25;16.11;3.73;1.33;-0.01
11:57:48 م;-7.81;-0.66;-0.96;4.48;-1.2;0.02
11:57:48 م;-1.33;-2.19;-1.55;-2.25;1.59;0.03
11:57:48 م;14.74;-17.68;9.18;-4.73;1.8;0.02
11:57:48 م;6.49;-15.91;11.43;4.71;0.98;-0.01
11:57:48 م;-11.36;-4.72;6.75;8.73;-1.03;0
11:57:49 م;0.92;2.17;0.74;0.87;2.59;0.03
11:57:49 م;0.87;-8.51;-3.71;-7.36;5.14;0.03
11:57:49 م;8.47;-22.81;18.64;-4.55;4.19;-0.01
11:57:49 م;-5.11;-15.22;8.37;8.73;-0.11;-0.01
11:57:49 م;-6;1.63;-1.3;1.06;0.62;0.03
11:57:49 م;4.22;-12.46;-1.01;-8.32;2.12;0.03
11:57:49 م;2.98;-20.56;17.77;-2.01;3.65;-0.01
11:57:49 م;-14.18;-11.35;4.03;8.73;1.19;-0.01
11:57:49 م;1.03;1.38;4.2;2.61;-0.25;0.03
11:57:49 م;0.98;-5.52;1.11;-6.17;5.07;0.03
11:57:50 م;5.94;-20.04;14.74;-6.28;1.89;0.01
11:57:50 م;-2.63;-16.48;9.33;7.11;2.97;-0.02
11:57:50 م;-5.68;0.45;3.57;3.97;-1.97;0.01
11:57:50 م;0.25;3.34;1.55;0.48;1.86;0.01
11:57:50 م;-0.92;-0.86;4.01;-2.42;1.29;0.03
11:57:50 م;4.99;-20.37;9.17;-7.78;0.9;0.03
11:57:50 م;2.49;-18.35;11;2.68;1.43;0
11:57:50 م;-5.16;-3.59;-0.28;1.83;-0.29;0
11:57:50 م;-2.3;-3.97;5.48;-0.71;-0.1;0.02
11:57:51 م;4.02;-7.92;12.63;1.91;-1.03;0.02
11:57:51 م;-5.83;-1.26;6.95;8.73;-1.89;0.01
11:57:51 م;29.65;-13.48;-4.71;-5.2;-3.17;0.05
11:57:51 م;2.96;-19.48;7.26;-8.72;3.74;0
11:57:51 م;-0.15;-17.41;13.05;5.07;4.64;-0.02
11:57:51 م;-9.13;4.67;-4.14;3.79;-0.79;0.02
11:57:51 م;2.27;-2.65;-7.55;-4.81;4.62;0.03
11:57:51 م;15.22;-17.55;6.99;-4.05;4.15;0.02
11:57:51 م;1.78;-15.75;19.8;5.67;-0.67;-0.01
11:57:51 م;-9.93;-2.43;3.21;7.62;-1.99;0.01
11:57:52 م;1.75;1.47;1.47;0.72;1.65;0.02
11:57:52 م;-1.65;-10.64;-2.74;-8.73;2.66;0.03
11:57:52 م;11.15;-22.8;13.64;-2.28;2.09;0.01
11:57:52 م;-1.45;-16.54;6.73;8.73;1.91;-0.01
11:57:52 م;-7.67;0.41;1.53;3.84;-1.51;0.01
11:57:52 م;6.92;-0.04;5.57;0.15;-0.04;0.02
11:57:52 م;6.25;-0.04;2.54;-1.46;2.58;0.01
11:57:52 م;-1.41;-1.51;14.42;0.08;0.95;0.01
11:57:52 م;4.29;-3.44;-0.3;1.1;-0.7;0.04
11:57:53 م;8.44;-16.85;6.19;-7.35;1.43;0.02
11:57:53 م;-0.17;-21.42;14.76;5.04;4.28;-0.02
11:57:53 م;-10.4;-0.62;1.73;8.04;-2.83;0.02
11:57:53 م;4.53;-0.53;1.06;0.01;3.24;0.03
11:57:53 م;8.74;-13;3.94;-8.61;2.05;0.02
11:57:53 م;3.58;-18.84;22.4;1.41;1.8;-0.01
11:57:53 م;-11.41;-5.94;2.45;8.73;-0.06;0.01
11:57:53 م;2.67;-0.75;0.22;-0.1;1.89;0.03
11:57:53 م;9.9;-12.53;3.48;-6.89;2.29;0.03
11:57:53 م;5.29;-17.28;17.05;-0.98;2.59;-0.01
11:57:54 م;-15.72;-8.39;6.45;8.73;0.16;0
11:57:54 م;2.45;2.89;4.02;3.05;0.11;0.02
11:57:54 م;3.51;0.14;-3.25;-2.99;5;0.02
11:57:54 م;7.9;-13.08;10.07;-7.82;3.34;0.01
11:57:54 م;8.02;-19.05;23.32;6.44;1.32;-0.02
11:57:54 م;-14.28;0.76;-4.59;7.09;-3.66;0.02
11:57:54 م;3.17;1.48;-0.31;0.45;4.2;0.03
11:57:54 م;4.41;-8.84;3.64;-7.24;4.11;0.02
11:57:54 م;3.56;-15.79;19.6;-4.44;1.05;0.01
11:57:55 م;-0.7;-9.3;3.49;0.03;1.54;0
11:57:55 م;-4.49;-10.53;12.65;8.2;2.16;-0.01
11:57:55 م;-2.59;1.06;-2.88;3.34;-0.72;0.03
11:57:55 م;3.71;-7.56;-1.57;-5.63;2.85;0.03
11:57:55 م;7.15;-13.92;8.3;-2.69;4.52;0
11:57:55 م;4.21;-14.82;17.72;7.85;1.46;-0.01
11:57:55 م;-9.31;2.93;-0.76;4.65;-2.48;0.02
11:57:55 م;3.41;2.85;-1.28;0.16;3.74;0.02
11:57:55 م;6.65;-14.31;1.91;-8.73;3.3;0.02
11:57:56 م;11.35;-21.4;29.06;4.45;0.69;-0.01
11:57:56 م;-13.62;-0.79;-3.31;8.01;-0.73;0.01
11:57:56 م;3.08;1.32;1.31;0.1;2.02;0.03
11:57:56 م;4.43;-8.2;1.28;-8.11;3.31;0.02
11:57:56 م;5.07;-19.55;19.36;-3.27;2.68;0
11:57:56 م;-7.47;-10;4.8;8.73;1.09;-0.01
11:57:56 م;0.54;1.8;-0.57;2.48;-0.6;0.03
11:57:56 م;2.2;-6.27;-4.23;-7.72;3.77;0.03
11:57:56 م;7.32;-20.26;20.54;-4.24;1.12;0.01
11:57:56 م;-5.47;-13.81;13.05;8.73;1.27;0
11:57:57 م;-4.78;-0.11;-0.17;5.54;-2.21;0.03
11:57:57 م;2.11;0.25;-0.99;-0.16;4.44;0.02
11:57:57 م;6.52;-13.34;6.79;-8.73;2.49;0.02
11:57:57 م;4.84;-15.17;20.58;5.1;1.18;-0.01
11:57:57 م;-10.78;-0.79;0.33;5.38;-1.61;0.01
11:57:57 م;4.09;1.58;3.97;1.04;0.43;0.02
11:57:57 م;3.03;-1.31;-0.08;-5.37;2.27;0.02
11:57:57 م;7.32;-17.37;16.76;-4.34;1.21;0.01
11:57:57 م;-5.38;-12.81;9.29;8.2;2.43;0
11:57:58 م;-2.18;0.99;2.02;3.35;-1.63;0.02
11:57:58 م;-1.13;1.58;2.6;0.97;2.62;0.02
11:57:58 م;6.02;-10.03;-0.42;-8.73;2.28;0.02
11:57:58 م;7.87;-18.94;19.51;1.14;3.21;-0.01
11:57:58 م;-13.62;-5.2;1.32;8.73;-0.69;0.01
11:57:58 م;3.11;1.74;2.41;1.39;0.44;0.03
11:57:58 م;5.56;-10.63;-1.39;-8.73;1.63;0.03
11:57:58 م;4.08;-18.74;16.79;-0.51;3.16;0
11:57:58 م;-11.95;-8.99;4.58;8.73;1.94;0
11:57:58 م;1.87;1.79;1.18;2.88;-0.64;0.03
11:57:59 م;-1.9;-4;-7.16;-7.65;4.1;0.03
11:57:59 م;9.19;-18.58;16.38;-2.29;4.14;0
11:57:59 م;-5.81;-12.78;12.9;8.22;1.28;-0.01
11:57:59 م;-5.29;2.04;0.28;4.93;-1.17;0.02
11:57:59 م;1.81;1.22;-7.64;-4;5.99;0.02
11:57:59 م;9.6;-26.31;15.1;-8.73;4.51;0.01
11:57:59 م;0.48;-16.74;13.88;7.12;2.4;-0.01
11:57:59 م;-9.94;-0.1;3.68;5.36;-1.42;0.02
11:57:59 م;4.94;1.08;0.91;0.65;2.31;0.03
11:58:00 م;9.95;-17.23;1.45;-8.73;2.08;0.02
11:58:00 م;2.52;-19.21;13.87;4.36;3.63;-0.01
11:58:00 م;-11.94;-4.63;1.23;8.73;-0.84;0.01
11:58:00 م;3.04;1.79;0.23;0.73;1.64;0.02
11:58:00 م;-2.54;-11.6;-0.29;-8.73;4.22;0.02
11:58:00 م;6.01;-16.85;14.14;-0.31;4.11;-0.01
11:58:00 م;-13.41;-11.26;2.3;8.73;-1.12;0.01
11:58:00 م;2.18;-1.05;6.5;0.97;-0.23;0.03
11:58:00 م;6.76;-8.26;-2.11;-7.93;0.63;0.03
11:58:00 م;2.27;-17.95;9.78;-1.03;3.34;0
11:58:01 م;-10.95;-10.32;6.12;8.73;0.47;0
11:58:01 م;2.48;1.69;5.43;2.48;0.8;0.02
11:58:01 م;2.14;-1.52;-2.83;-5.47;2.58;0.02
11:58:01 م;8.58;-17.75;13.31;-6.12;1.28;0.01
11:58:01 م;-1.94;-16.87;13.62;7.85;2.07;-0.01
11:58:01 م;-7.53;0.76;2.19;4.18;-2.29;0.02
11:58:01 م;3.6;1.32;-0.45;-0.71;2.89;0.02
11:58:01 م;7.31;-7.88;6.1;-5.9;1.13;0.02
11:58:01 م;6.11;-12.2;17.55;-1.51;0.95;0
11:58:02 م;-7.61;-5.55;6.42;6.8;-0.15;0
11:58:02 م;0.87;1.63;2.53;1.57;0.79;0.02
11:58:02 م;1.69;-0.83;-2.24;-4.08;3.68;0.02
11:58:02 م;11.1;-19.07;14.42;-7.86;0.38;0.01
11:58:02 م;-3.02;-16.9;8.28;8.73;2.74;-0.02
11:58:02 م;-5.58;1.51;0.44;4.62;-1.84;0.02
11:58:02 م;2.64;2.01;2.06;1.51;2.37;0.02
11:58:02 م;2.39;-4.39;-0.23;-7.33;3.57;0.02
11:58:02 م;11.19;-19.19;25.07;-4.71;1.45;0
11:58:02 م;-17.97;-12.99;2.98;8.73;0.14;-0.02
11:58:03 م;3.69;4.16;-1.86;1.53;0.5;0.02
11:58:03 م;4.31;1.88;-2.68;-2.59;4.96;0.02
11:58:03 م;4.73;-17.77;3.98;-8.73;3.15;0.01
11:58:03 م;0.98;-15.68;6.19;0.39;6.55;-0.01
11:58:03 م;-0.44;-11.74;14.73;6.03;-0.69;0.01
11:58:03 م;-4.84;-4.04;-0.43;6.92;-2.19;0.03
11:58:03 م;-3.55;-1.35;-8.1;-2.68;4.77;0.02
11:58:03 م;8.96;-14.75;8.34;-5.96;3.77;0.01
11:58:03 م;1.32;-16.49;17.57;7.33;2.05;-0.01
11:58:04 م;-10.76;-0.13;0.53;6.61;-2.46;0.02
11:58:04 م;4.84;2.74;1.25;1.35;2.03;0.02
11:58:04 م;5.31;-6.74;-3.09;-8.73;3.1;0.01
11:58:04 م;12.07;-18.26;25.34;-3.28;0.12;0
11:58:04 م;-14.38;-12.5;5.19;8.73;1.51;-0.01
11:58:04 م;0.76;2.39;-0.48;2.08;0.01;0.03
11:58:04 م;6.91;2.08;-0.17;-1.99;3.36;0.02
11:58:04 م;2.76;-4.88;9.72;-5.71;0.76;0.01
11:58:04 م;2.18;-7.26;2.48;-3.25;0.51;0.01
11:58:05 م;2.97;-17.78;21.33;4.53;0.4;-0.01
11:58:05 م;-9.81;-1.23;3.45;7.63;-1.08;0.01
11:58:05 م;3.35;1.27;0.53;1.15;2.4;0.02
11:58:05 م;6.05;-3.66;-1.25;-4.2;4.19;0.02
11:58:05 م;11.97;-17.14;14.28;-6.96;1.09;0.01
11:58:05 م;-4.27;-14.31;8.44;7.75;2.24;-0.06
11:58:05 م;-5.66;1.01;1.14;4.19;-1.94;0.02
11:58:05 م;0.9;-0.14;-3.64;-1.83;4.7;0.02
11:58:05 م;13.05;-15.51;11.69;-6.41;3.84;0.01
11:58:05 م;-2.4;-13.62;13.91;7.33;1.47;-0.02
11:58:06 م;-4.24;2.15;-0.06;2.78;-1.68;0.02
11:58:06 م;3.33;0.12;-2.52;-2.1;3.74;0.02
11:58:06 م;9.36;-13.86;6.4;-7.06;1.71;0.02
11:58:06 م;3;-19.37;20.76;2.95;2.49;-0.02
11:58:06 م;-12.05;-2.88;3.43;8.73;-2.68;0.01
11:58:06 م;-0.34;2.08;-0.81;0.87;2.55;0.02
11:58:06 م;9.46;-9.24;2.77;-5.89;1.86;0.02
11:58:06 م;8.78;-13.87;26.72;1.39;-1.13;0
11:58:06 م;-8.08;0.49;-1.35;6.99;-1.27;0
11:58:06 م;2.19;3.24;-1.89;0.52;2.94;0.02
11:58:07 م;4.97;-13.86;1.93;-8.73;1.56;0.02
11:58:07 م;15.98;-21.26;20.81;1.48;5.02;-0.01
11:58:07 م;-11.37;-5.43;4.3;8.19;-1.71;0.01
11:58:07 م;3.96;2.06;-0.81;1.16;0.82;0.02
11:58:07 م;1.81;-6.5;-3.7;-7.44;3.29;0.02
11:58:07 م;12.56;-19.76;19.89;-3.84;-0.44;0.01
11:58:07 م;-11.78;-17.46;10.19;8.73;1.6;-0.01
11:58:07 م;-4.36;2.08;-2.96;4.74;-0.71;0.03
11:58:07 م;3.16;-3.36;-3.38;-5.29;4.46;0.02
11:58:08 م;9.18;-17.35;9.69;-6.94;6.42;0.01
11:58:08 م;3.33;-10.52;15.02;5.19;0.5;-0.01
11:58:08 م;-7.66;0.54;-0.41;6.46;-0.7;0.01
11:58:08 م;3.63;1.21;-0.1;0.48;2.47;0.02
11:58:08 م;4.19;-12.07;0.18;-8.73;2.34;0.02
11:58:08 م;8.71;-19.38;20.17;-0.45;2.69;-0.01
11:58:08 م;-10.93;-8.91;6.1;8.73;-0.51;0
11:58:08 م;1.79;1.41;1.95;2.31;0.37;0.03
11:58:08 م;4.34;-2.99;-5;-6.07;3.84;0.02
11:58:09 م;5.74;-17.17;14.5;-6.18;3.1;0
11:58:09 م;-1.92;-13.91;12.54;6.22;2.61;-0.01
11:58:09 م;-6.49;-0.81;3.9;4.86;-0.74;0.02
11:58:09 م;2.28;1.36;-5.19;-2.92;4.63;0.02
11:58:09 م;9.72;-18.32;10.14;-8.7;0.65;0.02
11:58:09 م;4.03;-18.93;13.6;7.38;3.55;-0.04
11:58:09 م;-11.02;-0.44;-0.69;4.98;-2.69;0.02
11:58:09 م;2.7;-0.91;2.53;-0.89;3.14;0.03
11:58:09 م;7.97;-13.27;7.66;-6.1;1.53;0.02
11:58:09 م;4.52;-15.1;17.62;3.86;1.32;-0.01
11:58:10 م;-10.3;0.1;-1.82;7.45;-0.97;0.01
11:58:10 م;4.75;1.98;-1.81;-0.18;2.98;0.02
11:58:10 م;10;-14.86;4.7;-8.73;2.47;0.02
11:58:10 م;2.16;-16.47;19.79;1.37;2.16;-0.01
11:58:10 م;-11.23;-4.55;3.03;8.73;-0.64;0.01
11:58:10 م;-1.62;-0.63;-7.03;-5.57;3.33;0.03
11:58:10 م;10.27;-15.94;8.88;-4.78;3.47;0.01
11:58:10 م;-0.1;-12.66;11.91;3.92;1.27;0
11:58:10 م;-4.32;-2.97;6.39;6.95;-1.78;0.01
11:58:11 م;-1.88;-0.71;-7.21;-3.82;1.98;0.03
11:58:11 م;13.14;-14.72;9.02;-3.85;4.34;0.01
11:58:11 م;-3.05;-11.12;15.1;6.36;0.84;-0.01
11:58:11 م;-5.7;2.05;-0.36;5.3;-1.24;0.02
11:58:11 م;0.38;0.21;-5.6;-2.85;5.26;0.03
11:58:11 م;14.52;-18.14;11.73;-6.03;3.8;0.01
11:58:11 م;-3.25;-13.25;13.6;5.95;1.54;-0.01
11:58:11 م;-8.53;0.46;1.3;4.3;-1.21;0.02
11:58:11 م;3.62;-1.92;-3.55;-3.02;3.65;0.03
11:58:11 م;11.11;-18.99;16.11;-6.8;4.74;0
11:58:12 م;-9.89;-8.17;6.67;7.37;2.09;0
11:58:12 م;-0.83;1.23;0.35;3.21;-0.03;0.02
11:58:12 م;1.81;-4.07;-2.48;-5.57;2.69;0.03
11:58:12 م;5.8;-19.39;11.68;-4.34;3.79;0
11:58:12 م;-4.71;-16.99;11.3;8.3;2.75;-0.01
11:58:12 م;-5.78;-1.19;3.71;4.84;-2.53;0.02
11:58:12 م;4.72;0.16;0.06;0.98;2.72;0.02
11:58:12 م;7.52;-15.83;3.57;-8.73;1.78;0.02
11:58:12 م;5.9;-19.99;22.97;2.71;1.73;-0.01
11:58:13 م;-12.45;-2.38;0.83;8.28;-1.27;0.01
11:58:13 م;5.95;-0.02;2.19;1.4;1.22;0.03
11:58:13 م;9.84;-14.97;1.47;-8.73;1.44;0.02
11:58:13 م;3.99;-19.36;20.54;1.47;1.97;-0.01
11:58:13 م;-11.35;-5.15;4.76;7.91;-0.54;0
11:58:13 م;0.8;0.85;0.7;1.56;0.5;0.03
11:58:13 م;7.1;-9.85;-5.94;-8.6;2.36;0.02
11:58:13 م;9.85;-17.19;13.78;-0.44;3.41;0
11:58:13 م;-7.7;-14.32;12.41;8.73;0.68;-0.01
11:58:13 م;-2.64;2.11;-1.19;4.15;-0.43;0.03
11:58:14 م;-1.2;-0.42;-9.24;-4.24;7.16;0.02
11:58:14 م;11.74;-16.06;11.25;-6.31;3.99;0.01
11:58:14 م;2.11;-18;16.53;7.23;2.48;-0.02
11:58:14 م;-11.64;2.51;-2.5;7.17;-2.31;0.02
11:58:14 م;4.13;1.98;-4.41;-0.62;4.79;0.02
11:58:14 م;9.61;-16.43;3.18;-8.73;3.58;0.02
11:58:14 م;7.24;-18.73;13.73;-2.09;3.94;-0.01
11:58:14 م;-8.68;-11.67;5.96;8.73;1.19;-0.01
11:58:14 م;0.28;1.82;-1.1;1.35;0.4;0.03
11:58:15 م;8.56;-14.03;-6.24;-8.73;-0.58;0.04
11:58:15 م;8.65;-19.1;8.82;0.42;2.94;0
11:58:15 م;-4.94;-16.42;8.75;8.73;3.41;-0.01
11:58:15 م;-3.95;0.25;0.58;3.33;-2.03;0.03
11:58:15 م;-1.78;-2.08;-5.42;-3.93;4.74;0.03
11:58:15 م;12.25;-17.15;9.3;-7.24;5.01;0.01
11:58:15 م;-2.89;-19.42;16.52;7.84;3.57;-0.01
11:58:15 م;-8.19;-1.98;2.17;4.99;-2.4;0.02
11:58:15 م;3.13;-0.02;-0.27;-0.01;2.18;0.03
11:58:15 م;8.16;-12.79;4.87;-8.73;4.88;0.02
11:58:16 م;6.68;-18.06;18.37;1.44;2.08;0
11:58:16 م;-13.61;-7.86;4.87;8.27;-0.18;0
11:58:16 م;2.18;1.87;-0.88;1.43;1.06;0.03
11:58:16 م;6.9;-14.18;-4.73;-8.73;2.26;0.02
11:58:16 م;7.62;-20.07;19.06;2.04;4.05;-0.01
11:58:16 م;-10.17;-6.88;3.22;7.9;-0.87;0
11:58:16 م;0.6;1.63;1.33;4.01;0.69;0.03
11:58:16 م;-0.71;-1.9;-9.93;-5.12;6.47;0.02
11:58:16 م;10.52;-19.43;15.16;-5.64;4.85;0
11:58:17 م;-4.87;-15.24;12.39;6.85;2.6;-0.01
11:58:17 م;-9.61;-0.62;2.14;6.47;-2.12;0.02
11:58:17 م;0.03;-0.02;-4.48;-3.79;5.14;0.02
11:58:17 م;9.33;-21.03;13.25;-8.54;3.15;0.01
11:58:17 م;-0.76;-21.25;14.38;5.46;3.88;-0.02
11:58:17 م;-11.91;-2.08;-0.97;7.32;-2.4;0.01
11:58:17 م;0.38;1.15;-0.81;-0.7;2.99;0.03
11:58:17 م;12.14;-17.49;3.99;-8.73;1.61;0.02
11:58:17 م;4.54;-19.82;17.54;4.47;2.71;-0.01
11:58:17 م;-11.4;-2.08;-0.09;6.29;-0.64;0.01
11:58:18 م;3.1;0.87;0.8;0.37;1.46;0.03
11:58:18 م;8.92;-14.37;0.24;-8.73;0.76;0.03
11:58:18 م;5.17;-19.21;15.03;1.8;2.74;-0.01
11:58:18 م;-9.1;-6.08;2.24;7.83;-0.34;0
11:58:18 م;2.17;0.44;1.24;1.17;0.2;0.03
11:58:18 م;9.45;-15.6;-2.47;-8.73;0.52;0.02
11:58:18 م;5.33;-19.03;13.16;1.79;3.43;-0.01
11:58:18 م;-8.13;-6.57;3.5;7.69;0.19;0
11:58:18 م;-0.16;1.1;1.34;3.03;0.18;0.02
11:58:19 م;1.3;-5.13;-7.24;-7.44;3.84;0.02
11:58:19 م;9.4;-20.07;18.01;-3.75;2.32;0
11:58:19 م;-3.87;-14.21;8.49;8.63;3.03;-0.01
11:58:19 م;-4.51;0.49;1.94;4;-1.79;0.02
11:58:19 م;2.85;-0.86;-3.91;-3.5;4.9;0.02
11:58:19 م;11.91;-14.33;10.53;-6.08;2.75;0.01
11:58:19 م;-1.81;-15.83;14.85;3.77;2.66;-0.01
11:58:19 م;-7;-2.54;3.16;7.02;-1.43;0.01
11:58:19 م;3.12;1.44;1.13;0.98;0.87;0.02
11:58:20 م;5.53;-8.04;-0.62;-7.76;2.2;0.02
11:58:20 م;8.13;-18.42;21.79;-1.56;0.35;0
11:58:20 م;-10.84;-10.31;5.15;8.73;0.28;0
11:58:20 م;0.9;1.01;1.92;0.8;-0.03;0.02
11:58:20 م;3.79;-7.6;-2.71;-8.33;2.97;0.02
11:58:20 م;8.32;-17.71;17.88;-3.77;0.6;0
11:58:20 م;-6.06;-13.46;5.5;8.73;1.51;-0.01
11:58:20 م;-3.99;1.44;2.41;3.26;-1.27;0.02
11:58:20 م;2.19;-0.76;-2.75;-3.81;4.08;0.02
11:58:20 م;8.19;-15.12;10.89;-6.98;1.86;0.01
11:58:21 م;0.06;-17.52;17.07;6.3;2.41;-0.01
11:58:21 م;-10.74;-1.84;2.11;6.55;-2.5;0.02
11:58:21 م;1.8;0.26;-1.15;-2.09;3.3;0.02
11:58:21 م;9.47;-16.23;7.21;-8.73;2.6;0.01
11:58:21 م;2.15;-17.02;18;4.58;2.48;-0.01
11:58:21 م;-11.46;-1.8;1.59;6.16;-1.3;0.01
11:58:21 م;3.9;-0.04;0.89;0.08;1.91;0.02
11:58:21 م;10.25;-12.79;-0.16;-8.73;2.31;0.02
11:58:21 م;4.72;-17.27;20.28;4.43;1.13;-0.01
11:58:22 م;-10.77;-2.19;-1.13;7.07;-0.39;0.01
11:58:22 م;5.41;-0.15;0.81;-0.2;1.49;0.03
11:58:22 م;9.67;-14.2;2.83;-8.73;0.4;0.02
11:58:22 م;2.82;-17.79;18.48;4.32;1.69;-0.01
11:58:22 م;-8.44;-0.99;-1.85;6.98;-0.24;0.01
11:58:22 م;4.73;0.04;0.92;-0.35;1.91;0.02
11:58:22 م;9.22;-16.34;2.85;-8.73;-0.1;0.02
11:58:22 م;1.46;-18.26;15.37;4.9;2.82;-0.01
11:58:22 م;-7.56;-3.22;1.25;7.94;-0.83;0.01
11:58:22 م;1.64;1.54;0.66;1.86;1.67;0.02
11:58:23 م;3.93;-8.98;-0.01;-8.73;2.12;0.02
11:58:23 م;7.6;-18.46;18.75;-1.1;2.72;0
11:58:23 م;-10.86;-10.49;6.48;8.73;0.69;0
11:58:23 م;-0.48;2.29;-1.44;-0.15;1.53;0.02
11:58:23 م;2.57;-10.92;-0.97;-8.73;1.23;0.03
11:58:23 م;7.65;-18.1;13.07;-0.81;3.22;0
11:58:23 م;-8.95;-11.07;5.73;8.73;1.8;-0.01
11:58:23 م;0.96;1.76;-1.04;2.4;-0.56;0.03
11:58:23 م;2.04;-1.73;-5.08;-6.42;4.94;0.02
11:58:24 م;10.85;-20.08;20.06;-4.74;2.64;0
11:58:24 م;-6.2;-12.47;7.5;8.11;1.6;-0.01
11:58:24 م;-3.26;0.75;0.66;4.71;-1.05;0.02
11:58:24 م;3.72;-1.04;-2.46;-3.32;3.75;0.02
11:58:24 م;9.59;-17.58;12.94;-7.53;1.21;0.01
11:58:24 م;-1.8;-15.05;11.66;7.88;2.47;-0.01
11:58:24 م;-6.5;0.06;2.74;5.11;-2.26;0.02
11:58:24 م;5.51;0.96;-0.06;-0.07;3.08;0.02
11:58:24 م;9.48;-14.77;4.03;-8.73;1.3;0.02
11:58:24 م;2.45;-16.33;18.11;5.48;1.87;-0.01
11:58:25 م;-9.37;-0.14;1.02;6.6;-1.1;0.01
11:58:25 م;4.17;0.33;2.23;0.08;1.82;0.02
11:58:25 م;3.69;-13.15;-0.65;-8.73;0.84;0.02
11:58:25 م;5.23;-19.88;18.35;1.51;3.03;-0.01
11:58:25 م;-11.87;-7.59;2.84;8.73;-0.08;0
11:58:25 م;4.05;0.54;2.66;1.84;1.29;0.02
11:58:25 م;2.81;-8.16;-3.61;-8.73;3.3;0.02
11:58:25 م;9.23;-19.67;17.62;-1.22;3.16;0
11:58:25 م;-8.1;-8.83;5.16;8.3;0.42;0
11:58:26 م;0;1.86;-0.24;2.16;0.57;0.02
11:58:26 م;3.93;-4.03;-2.66;-6.2;2.95;0.02
11:58:26 م;9.51;-16.73;16.38;-5.12;1.75;0
11:58:26 م;-6.28;-10.43;7.77;6.62;1.75;0
11:58:26 م;-1.62;0.62;0.08;5.22;-0.39;0.02
11:58:26 م;4.95;-0.45;-2.58;-3.11;4.03;0.02
11:58:26 م;10.08;-20.19;14.49;-8.73;-0.98;0.01
11:58:26 م;-5.05;-15.46;5.21;8.73;3.37;-0.01
11:58:26 م;-4.24;-0.04;2.41;4.91;-1.96;0.02
11:58:26 م;3.99;0.45;-1.6;-2.4;3.91;0.02
11:58:27 م;7.63;-15.5;9.42;-8.64;0.36;0.02
11:58:27 م;-0.6;-16.28;14.34;4.6;2.71;-0.01
11:58:27 م;-8.32;-1.45;3.2;7.14;-0.8;0.01
11:58:27 م;3.61;0.8;0.91;-0.31;1.76;0.02
11:58:27 م;4.25;-9.57;3.12;-7.1;1.89;0.02
11:58:27 م;5.18;-18.49;22.01;-0.04;1.52;0
11:58:27 م;-11.77;-6.37;4.82;8.48;-0.64;0
11:58:27 م;1.81;1.57;0.65;0.7;1.13;0.02
11:58:27 م;2.34;-7.31;-2.26;-8.21;2.54;0.02
11:58:28 م;10.85;-19.46;19.81;-2.11;1.74;0
11:58:28 م;-10.59;-11.43;3.34;8.73;0.68;-0.01
11:58:28 م;-1.64;1.8;2.63;1.92;-0.18;0.02
11:58:28 م;0.03;-2.43;-5.83;-5.15;5.25;0.02
11:58:28 م;10.73;-19.19;12.87;-6.92;2.76;0.01
11:58:28 م;-2.79;-18.33;13.48;7.88;2.66;-0.01
11:58:28 م;-7.46;-0.51;0.76;6.53;-2.3;0.02
11:58:28 م;3.81;1.76;-2.43;-0.39;4.33;0.02
11:58:28 م;10.17;-20.39;7.36;-8.73;1.35;0.02
11:58:28 م;1.46;-18.22;15.47;6.39;1.76;-0.01
11:58:29 م;-9.34;0.66;1.86;5.51;-1.93;0.01
11:58:29 م;3.22;1.97;0.73;1.05;2.62;0.02
11:58:29 م;0.5;-11.27;-3.17;-8.73;3.11;0.02
11:58:29 م;9.43;-23.18;19.69;-0.71;3.06;0
11:58:29 م;-12.33;-12.8;2.32;8.73;0.32;0
11:58:29 م;3.12;2.67;0.42;2.82;1.19;0.02
11:58:29 م;-1.82;-3.27;-11.04;-8.73;6.6;0.02
11:58:29 م;11.56;-24.17;19.16;-4.5;2.05;0.01
11:58:29 م;-4.17;-18.45;12.2;8.73;2.2;-0.01
11:58:30 م;-7.71;1.38;-3.33;6.95;-2.1;0.02
11:58:30 م;4.41;2.12;-4;-1.74;5.21;0.02
11:58:30 م;12.31;-22.67;5.83;-8.73;0.44;0.02
11:58:30 م;2.58;-25.58;15.65;6.79;3.87;-0.03
11:58:30 م;-12.1;2.13;-6.77;5.78;-2.14;0.02
11:58:30 م;0.53;-0.62;-3.84;-4.31;5.45;0.03
11:58:30 م;12.55;-16.74;5.66;-6.02;1.89;0.02
11:58:30 م;1.35;-20.12;18.3;3.74;2.93;-0.01
11:58:30 م;-13.34;-0.87;-3.46;8.63;-0.62;0.02
11:58:30 م;5.12;0.11;-2.41;-0.39;3.5;0.03
11:58:31 م;6.56;-12.86;3.73;-8.21;3.09;0.02
11:58:31 م;3.01;-18.11;21.36;2.13;1.14;-0.01
11:58:31 م;-9.49;-7.21;2.78;8.73;-2.08;0
11:58:31 م;-0.6;3.29;-0.21;1.73;1.76;0.02
11:58:31 م;-1.06;-9.94;-5.27;-8.73;4.61;0.02
11:58:31 م;11.75;-22.57;19.21;-2;2.9;0
11:58:31 م;-11.58;-13.89;-1.68;8.73;0.53;-0.01
11:58:31 م;-0.2;2.72;-3.07;1.99;-0.8;0.03
11:58:31 م;0.46;-4.07;-2.46;-5.81;6.52;0.02
11:58:32 م;10.94;-18;11.73;-6.32;2.77;0.01
11:58:32 م;-0.86;-19.19;14.75;7.95;2.48;-0.01
11:58:32 م;-10.66;-1.02;-0.26;6.1;-1.95;0.02
11:58:32 م;5.52;-0.67;-1.33;-0.75;3.3;0.03
11:58:32 م;11.1;-14.46;5.96;-7.67;2.71;0.02
11:58:32 م;1.42;-16.95;17.57;2.9;2.23;-0.01
11:58:32 م;-10.82;-6.06;6.7;8.73;-1.53;0.01
11:58:32 م;3.25;1.98;2.07;2.01;1.45;0.02
11:58:32 م;2.73;-1.06;-3.38;-3.83;6.13;0.02
11:58:33 م;8.05;-21.97;13.47;-8.73;1.53;0.01
11:58:33 م;-2.46;-20.2;11.2;8.1;3;-0.02
11:58:33 م;-10.21;0.94;-3.38;5.77;-1.9;0.02
11:58:33 م;-1.22;-3.79;-4.92;-6.04;4.92;0.03
11:58:33 م;11.76;-17.52;12.21;-4.67;4.02;0.01
11:58:33 م;-3.27;-17.4;17.06;6.98;1.98;-0.01
11:58:33 م;-8.77;0.36;-0.54;6.01;-2.54;0.02
11:58:33 م;2.91;0.47;-2.44;-1.57;4.13;0.02
11:58:33 م;9.61;-16.62;6.34;-8.73;3.4;0.02
11:58:33 م;0.09;-16.77;18.66;4.1;1.73;-0.01
11:58:34 م;-7.27;-2.7;-1.59;6.97;-0.17;0.01
11:58:34 م;3.38;1.55;1.02;0.72;1.59;0.02
11:58:34 م;-3.46;-12.9;-5.11;-8.73;1.59;0.03
11:58:34 م;9.05;-21.54;17.51;0.67;3.19;-0.01
11:58:34 م;-9.4;-9.37;3.96;7.84;0.13;0
11:58:34 م;0.51;0.56;-0.13;2.95;-0.2;0.03
11:58:34 م;-0.27;-7.97;-9.53;-8.73;3.41;0.02
11:58:34 م;10.27;-21.45;17.4;-1.01;3.38;0
11:58:34 م;-8.95;-13.21;5.76;8.73;2.28;-0.01
11:58:35 م;1.18;-0.14;-3.4;4.77;-0.95;0.03
11:58:35 م;1.99;-4.54;-6.58;-6.91;4.7;0.02
11:58:35 م;10.95;-18.16;17.63;-3.2;3.91;0
11:58:35 م;-11.6;-9.08;6.87;7.93;0.98;0
11:58:35 م;0.85;1.09;-4.19;6.27;-0.8;0.03
11:58:35 م;0.33;-5.33;-6.39;-7.68;4.42;0.02
11:58:35 م;8.44;-18.25;17.82;-5.29;1.41;0.01
11:58:35 م;-7.16;-14.01;9.05;8.73;2.13;0
11:58:35 م;-3.13;1.52;-0.11;3.61;-0.9;0.02
11:58:35 م;0.35;-1.9;-6.76;-6.28;4.98;0.02
11:58:36 م;10.21;-19.46;16.5;-5.65;2.63;0.01
11:58:36 م;-6.28;-17.98;13.74;8.37;2.37;-0.01
11:58:36 م;-6.82;0.16;1.78;5.83;-1.75;0.02
11:58:36 م;0.79;-0.17;-4.27;-3.78;4.47;0.03
11:58:36 م;9.03;-22.81;14.07;-8.73;2.26;0.01
11:58:36 م;-2;-18.99;14.02;6.65;3.87;-0.01
11:58:36 م;-8.61;-1.22;0.77;6.84;-2.85;0.02
11:58:36 م;4.81;1.01;-0.99;-0.69;3.59;0.02
11:58:36 م;7.89;-18.53;2;-8.73;3.25;0.02
11:58:37 م;2.58;-19.87;16.42;5.75;2.49;-0.01
11:58:37 م;-10.16;-3.25;0.12;7.58;-0.34;0.01
11:58:37 م;3.44;0.19;-1.08;-0.47;2.34;0.03
11:58:37 م;10.09;-17.07;5.02;-8.73;2.05;0.02
11:58:37 م;3.28;-16.61;14.67;4.99;3.27;-0.01
11:58:37 م;-12.81;-4.16;5.95;8.73;-2.01;0.01
11:58:37 م;2.27;1.35;-1.61;-1.26;2.73;0.03
11:58:37 م;10.45;-12.24;2.46;-8.73;4.42;0.01
11:58:37 م;3.29;-16.51;19.32;4.47;2.24;0
11:58:37 م;-9.89;-2.98;2.26;8.73;-2.54;0.02
11:58:38 م;2.32;1.98;-2.64;-1;3.05;0.02
11:58:38 م;10.64;-13.51;4.24;-8.73;3.17;0.02
11:58:38 م;5.79;-15.65;17.88;3.12;1.46;-0.01
11:58:38 م;-15.64;-5.65;8.66;8.03;-0.9;0.01
11:58:38 م;3.94;1.16;-1.4;-0.41;2.05;0.02
11:58:38 م;12.7;-8.92;2.58;-7.17;2.53;0.02
11:58:38 م;5.64;-12.41;17.19;0;0.84;0
11:58:38 م;-7.78;-5.43;7.12;7.69;-0.79;0.01
11:58:38 م;0.51;-1.87;2.65;-0.07;-0.76;0.03
11:58:39 م;5.67;-10.98;4.22;-7.54;2.33;0.02
11:58:39 م;-0.46;-17.26;19.85;0.89;3.09;-0.01
11:58:39 م;-10.04;-5.99;5.32;6.99;-0.8;0.01
11:58:39 م;1.18;1.07;0.91;1.18;0.81;0.02
11:58:39 م;4.67;-9.18;-2.09;-8.56;2.24;0.02
11:58:39 م;5.06;-18.31;20.04;0.36;1.91;0
11:58:39 م;-14.5;-6.19;1.26;8.16;0.47;0.01
11:58:39 م;2.76;-0.17;2.76;1.66;0.35;0.03
11:58:39 م;6.54;-9.54;-2.81;-8.71;2.73;0.02
11:58:39 م;-1.07;-14.58;17.84;-0.05;-0.13;0
11:58:40 م;-4.88;-7.07;2.07;8.14;0.32;0
11:58:40 م;-1.63;1.59;0.88;0.03;-0.4;0.03
11:58:40 م;1.64;-6.69;-0.31;-7.23;2.25;0.02
11:58:40 م;2.58;-16.39;13.32;-2.31;3.9;0
11:58:40 م;-7.97;-13.18;6.52;8.73;3.51;-0.01
11:58:40 م;-2.31;0.78;0.44;3.75;-2.03;0.02
11:58:40 م;0.09;0.62;-2.9;-2.68;3.74;0.03
11:58:40 م;5.04;-15.1;8.34;-8.73;4.62;0.01
11:58:40 م;1.76;-16.93;17.23;8.73;2.54;-0.01
11:58:41 م;-9.74;0.09;-0.8;4.86;-3.52;0.03
11:58:41 م;3.06;0.25;-0.85;-0.19;4.56;0.02
11:58:41 م;4.87;-9.71;10.29;-8.22;3.92;0.01
11:58:41 م;1.36;-9.43;21.94;6.85;-0.12;0
11:58:41 م;-7.56;-0.35;2.41;2.85;-1.82;0.03
11:58:41 م;-1.65;-0.3;-3.16;-1.12;2.42;0.02
11:58:41 م;9.28;-14.57;8.06;-8.73;3.11;0.01
11:58:41 م;-6.93;-18.92;15.9;8.73;4.33;-0.01
11:58:41 م;-7.4;-1.62;-0.02;2.33;-1.54;0.03
11:58:41 م;6.43;-5.94;-4.27;-4.63;0.22;0.03
11:58:42 م;3.93;-15.21;12.22;-4.23;4.95;0
11:58:42 م;-12.98;-8.37;12.6;6.02;1.01;0
11:58:42 م;-3.32;-0.31;0.17;1.67;-1.34;0.03
11:58:42 م;8.58;-4.92;0.3;-5.78;1.33;0.02
11:58:42 م;4.46;-12.75;10.41;-3.93;2.43;0
11:58:42 م;-5.58;-13.6;13.47;8.73;2.37;0
11:58:42 م;-3.77;-0.98;1.67;3.06;-1.79;0.03
11:58:42 م;6.44;-3.58;0.43;-5.96;1.38;0.02
11:58:42 م;-0.28;-12.78;10.95;-6.3;3.57;0
11:58:43 م;-5.13;-11.57;17.73;7.29;1.4;0
11:58:43 م;1.43;-2.03;1.63;0.68;-2.52;0.03
11:58:43 م;10.56;-9.34;-2.78;-8.02;-2.09;0.02
11:58:43 م;-0.21;-17.34;13.21;0.45;3.03;0
11:58:43 م;-8.72;-8.35;12.07;8.73;-0.31;0.01
11:58:43 م;-3.51;-1.02;-5.09;-0.36;2.44;0.03
11:58:43 م;13.13;-19.59;6.67;-8.73;4.2;0.01
11:58:43 م;4.61;-13.23;15.11;8.73;1.87;0
11:58:43 م;-6.12;1.6;-2.47;3.29;1.39;0.03
11:58:44 م;14.28;-3.21;-8.62;-6.09;2.36;0.01
11:58:44 م;10.04;-17.67;14.31;-6.71;4.16;0
11:58:44 م;-7.15;-4.93;7.66;8.73;-2.34;0
11:58:44 م;3.18;-0.35;-8.97;-0.89;0.29;0.03
11:58:44 م;8.33;-3.13;-6.53;-5.63;6.13;0.01
11:58:44 م;14.11;-13.95;16.33;-6.09;2.83;0
11:58:44 م;-11.67;2.23;-8.51;8.73;1.32;0.02
11:58:44 م;4.9;-1.4;-6.2;-5.6;1.99;0.02
11:58:44 م;13.95;-11.32;2.54;-7.02;1.81;0.01
11:58:44 م;3.9;-14.95;15.53;7.98;5.08;-0.01
11:58:45 م;-1.74;-2.22;-1.98;6.02;-3.23;0.03
11:58:45 م;7.33;-3.44;-5.15;-3.04;0.31;0.04
11:58:45 م;12.82;-20.88;4.41;-8.73;1.17;0.01
11:58:45 م;1.83;-12.3;9.05;7.93;4.2;-0.01
11:58:45 م;-4.03;1.7;-1.75;5.53;-1.26;0.02
11:58:45 م;10.05;-3.64;-6.18;-2.93;1.19;0.03
11:58:45 م;11.23;-21.95;3.88;-8.73;5.13;0.01
11:58:45 م;-1.53;-14.28;6.98;8.73;5.03;-0.01
11:58:45 م;-1.41;3.11;-5.72;3.75;-0.13;0.02
11:58:46 م;15.21;-4.93;-7.04;-2.4;2.32;0.03
11:58:46 م;11.64;-20.36;12.8;-6.72;2.25;0
11:58:46 م;-22.49;-10.28;4.63;8.73;7.96;-0.02
11:58:46 م;10.63;0.37;-2.48;1.66;0.77;0.03
11:58:46 م;9.65;-7.92;-10.79;-8.73;2.8;0.02
11:58:46 م;11.22;-21.26;10.58;-4.67;5.91;0
11:58:46 م;-10.54;-12.75;4.75;8.73;4.39;-0.01
11:58:46 م;5.95;-2.7;-6.51;1.32;0.43;0.04
11:58:46 م;7.1;-13.73;-6.39;-8.73;4.15;0.03
11:58:46 م;20.67;-25.79;16.46;8.73;5.85;-0.02
11:58:47 م;-14.13;1.65;4.18;6.75;-4.82;0.03
11:58:47 م;2.89;-3.51;-1.53;-0.75;1.09;0.04
11:58:47 م;16.5;-16.81;-6.62;-8.73;3.64;0.02
11:58:47 م;7.74;-24.12;17.4;5.13;3.09;-0.01
11:58:47 م;-16.49;-0.07;-6.22;8.73;-1.48;0.03
11:58:47 م;15.68;-3.18;-7.73;1.38;2.73;0.03
11:58:47 م;13.92;-22.96;-0.36;-8.73;1.45;0.02
11:58:47 م;10.28;-19.9;8.21;6.73;5.12;-0.02
11:58:47 م;-15.19;0.54;-1.77;8.21;-1.59;0.02
11:58:48 م;7.98;-1.62;-4.05;0.04;2.7;0.03
11:58:48 م;12.9;-19.96;-2.14;-8.73;2.51;0.02
11:58:48 م;6.41;-21.6;10.61;8.73;6.54;-0.02
11:58:48 م;-8.75;-1.04;0.3;8.44;-3.88;0.02
11:58:48 م;-1.23;0.46;-8.03;-1.86;3.63;0.03
11:58:48 م;17.57;-20.49;-6.66;-8.73;0.74;0.03
11:58:48 م;9.82;-23.67;11.67;8.73;4.63;-0.01
11:58:48 م;-5.82;-0.59;5.5;5.61;-5.71;0.02
11:58:48 م;0.41;0.64;-4.39;-0.18;2.25;0.03
11:58:48 م;14.28;-16.02;-5.05;-7;0.93;0.03
11:58:49 م;10.58;-22.33;14.94;6.82;4.75;-0.01
11:58:49 م;-13.23;-4.02;4.86;8.73;-3.71;0.02
11:58:49 م;0.23;-2.33;-5.08;1.4;3.79;0.03
11:58:49 م;15.51;-21.92;-8.38;-8.73;2.2;0.02
11:58:49 م;9.03;-31.9;2.96;8.73;5.62;-0.03
11:58:49 م;-9.28;2.34;6.97;2.93;-2.78;0.02
11:58:49 م;0.59;-0.34;-3.09;0.5;1.95;0.03
11:58:49 م;18.39;-16.53;-5.44;-8.5;3.24;0.02
11:58:49 م;12.85;-18.48;15.57;2.13;2.6;-0.01
11:58:50 م;-13.29;-5.55;5.01;8.73;-2.53;0.02
11:58:50 م;8.78;-1.01;-7.88;2.67;3.27;0.03
11:58:50 م;10.13;-17.26;-3.82;-8.73;2.91;0.02
11:58:50 م;15.92;-22.95;14.94;6.08;3.91;-0.01
11:58:50 م;-13.4;0.18;7.95;2.17;-5.09;0.01
11:58:50 م;7.46;-1.57;-10.48;6.86;0.14;0.03
11:58:50 م;9.39;-7.37;-7.59;-6.25;4.03;0.02
11:58:50 م;13.84;-25.49;14.95;-5.17;4.97;0
11:58:50 م;-19.66;-6.06;7.97;7.5;2.29;0
11:58:50 م;8.22;1.81;-6.76;1.94;-0.47;0.02
11:58:51 م;11.39;-4.45;-11.26;-2.7;3.78;0.03
11:58:51 م;13.7;-26.07;16.2;-7.34;4.35;0
11:58:51 م;-8.54;-9.13;8.16;8.73;1.54;-0.01
11:58:51 م;-2.95;2.65;-3.21;1.28;0.79;0.03
11:58:51 م;9.51;-7.89;-7.4;-6.6;2.91;0.03
11:58:51 م;12.88;-20.66;9.92;-3.62;4.11;0
11:58:51 م;0.87;-10.87;5.54;7.36;2.65;-0.02
11:58:51 م;-4.01;4.02;1.27;4.8;-3.93;0.02
11:58:51 م;7.68;-0.67;-6.07;-0.18;-0.35;0.02
11:58:52 م;12.68;-6.12;-6.6;-8.02;2.88;0.02
11:58:52 م;18.72;-14.16;0.67;-2.46;4.33;0.01
11:58:52 م;-5.38;-4.49;5.65;7.62;1.23;0
11:58:52 م;2.79;3.89;-0.68;1.7;-0.69;0.02
11:58:52 م;4.77;-3.32;-0.82;-3.31;-0.72;0.04
11:58:52 م;18.18;-19.36;-1.36;-3.64;1.02;0.02
11:58:52 م;0.47;-19.32;13.73;4.6;2.89;-0.02
11:58:52 م;-12.22;0.81;-1.32;7.34;0.47;0.02
11:58:52 م;7.31;-0.34;-6.39;-1.5;0.71;0.03
11:58:52 م;18.84;-22.51;0.59;-8.37;1.62;0.03
11:58:53 م;6.61;-16.88;14.74;7.63;3.28;-0.02
11:58:53 م;-13.91;-1.23;3.06;7.07;-1.81;0.02
11:58:53 م;5.09;-0.15;-4.19;0.31;0.98;0.03
11:58:53 م;10.77;-16.55;-3.2;-8.73;3.04;0.03
11:58:53 م;8.01;-20.6;18.73;3.89;3.07;-0.01
11:58:53 م;-13.84;-0.75;1.22;8.73;-2.1;0.02
11:58:53 م;1.61;-0.37;-6.5;-2.64;1.44;0.03
11:58:53 م;15.43;-15.71;5.45;-5.25;3.26;0.02
11:58:53 م;10.99;-16.45;16.27;5.33;2.83;-0.02
11:58:54 م;-19.51;5.33;-3.09;5.94;0.15;0.02
11:58:54 م;-2.81;-10.96;-17.56;-8.73;-2.78;0.04
11:58:54 م;16.03;-15.8;-0.6;3.34;4.6;0.01
11:58:54 م;-0.57;-16.32;21.63;5.07;3.19;-0.02
11:58:54 م;-10.1;0.86;-1.7;7.2;-1.75;0.02
11:58:54 م;5.36;-0.68;-3.15;0.82;3.49;0.03
11:58:54 م;12.45;-19.06;-4.6;-8.73;3.45;0.02
11:58:54 م;6.06;-17.96;19.18;5.07;3.38;-0.02
11:58:54 م;-7.06;1.49;-3.58;8.35;-1.68;0.02
11:58:54 م;-6.17;-5.43;-22.28;-8.73;3.16;0.04
11:58:55 م;16.82;-18.71;4.54;-1.99;5.82;0.01
11:58:55 م;2.65;-19.9;23.87;6.3;0.6;-0.01
11:58:55 م;-16.38;1.11;5.2;6.72;-2.51;0.01
11:58:55 م;2;-0.98;-4.36;1.39;2.66;0.03
11:58:55 م;11.35;-19.39;-7.73;-8.73;3.16;0.03
11:58:55 م;16.14;-23.05;10.47;6.6;4.61;-0.01
11:58:55 م;-19.38;-3.28;-0.19;8.73;-0.71;0.01
11:58:55 م;0.51;-1.62;-11.68;-1.75;4.92;0.04
11:58:55 م;17.59;-22.52;6.94;-8.73;2.31;0.03
11:58:56 م;5.88;-18.35;17.74;6.23;2.87;-0.02
11:58:56 م;-12.12;2.18;0.62;7.42;-2.79;0.02
11:58:56 م;3.47;0.91;-5.95;-1.69;2.64;0.03
11:58:56 م;12.23;-20.68;2.53;-8.73;2.64;0.03
11:58:56 م;7.98;-19.18;15.21;6.74;4.05;-0.02
11:58:56 م;-9.78;-0.54;-1.6;8.73;-2.06;0.02
11:58:56 م;4.9;1.92;-2.09;0.91;1.26;0.02
11:58:56 م;6.19;-9.11;-5.55;-8.73;3.39;0.03
11:58:56 م;11.59;-20.17;11.82;0.2;4.5;0
11:58:57 م;-3.84;-13.13;12.62;8.73;3.18;-0.01
11:58:57 م;-0.78;1.34;-2.9;3.53;-0.7;0.03
11:58:57 م;7.46;-13.15;-17.5;-8.73;-1.23;0.04
11:58:57 م;12.71;-17.44;2.95;2.12;5.73;0.01
11:58:57 م;-0.51;-15.68;16.47;8.73;2.49;-0.01
11:58:57 م;-7.01;3.77;-1.66;4.46;-0.78;0.02
11:58:57 م;3.22;-11.23;-15.7;-8.73;-0.8;0.04
11:58:57 م;16.55;-16.01;4.59;1.06;6.28;0.01
11:58:57 م;-2.73;-13.52;17.78;7.3;3.05;-0.02
11:58:57 م;-3.65;2.33;-4.81;5.38;-1.84;0.03
11:58:58 م;2.57;-9.26;-16.48;-8.73;-0.41;0.04
11:58:58 م;7.02;-18.52;3.79;-3.17;5.52;0.01
11:58:58 م;-0.75;-19.97;9.79;7.82;7.09;-0.02
11:58:58 م;-14.99;1.1;2.78;7.55;-1.86;0.02
11:58:58 م;8.94;-3.51;-5.84;-1.7;0.73;0.03
11:58:58 م;9.78;-15.64;-6.65;-8.73;4.37;0.02
11:58:58 م;12.05;-19.03;18.78;8.73;4.1;-0.02
11:58:58 م;-10.25;2.16;-0.77;5.47;-2.85;0.03
11:58:58 م;7.49;-5.6;-18.93;-8.73;-0.64;0.03
11:58:59 م;10.57;-17.68;5.88;-2.93;3.62;0.02
11:58:59 م;0.17;-20.39;18.92;5.18;2.35;-0.01
11:58:59 م;-12.52;1.79;-3.08;7.06;-0.42;0.02
11:58:59 م;1.93;-4.87;-23.25;-8.73;-1.39;0.04
11:58:59 م;14.43;-19.49;7.46;-0.37;5.23;0.01
11:58:59 م;-0.18;-15.53;19.46;7.57;1.3;-0.01
11:58:59 م;-5.58;3.8;-1.65;5.72;-1.31;0.02
11:58:59 م;1.48;-1.28;-12.46;-6.67;4.85;0.03
11:58:59 م;11.5;-21.89;8.87;-6.54;5.99;0.02
11:58:59 م;1.73;-20.49;17.04;5.74;2.1;0
11:59:00 م;-15.37;4.66;-2.03;7.01;-0.3;0.01
11:59:00 م;5.26;-0.93;-7.77;-4.07;3.2;0.03
11:59:00 م;14.64;-17.31;0.27;-8.47;4.15;0.02
11:59:00 م;7.44;-19.17;15;2.5;3.48;-0.01
11:59:00 م;-14.48;-4.55;4.04;8.73;0.77;0.01
11:59:00 م;3.5;1.68;-3.18;-0.04;2.15;0.03
11:59:00 م;17.76;-20.9;6.87;-8.73;1.83;0.03
11:59:00 م;3.81;-16.37;16.81;3.76;2.65;-0.01
11:59:00 م;-12.47;0.89;0.02;8.21;0.2;0.02
11:59:01 م;6.79;0.06;-8.48;-4.05;2.53;0.03
11:59:01 م;9.85;-17.43;7.43;-7.76;3.94;0.02
11:59:01 م;5.2;-19.15;20.68;5.34;2.41;-0.01
11:59:01 م;-17.69;2.62;-1.74;6.23;-0.82;0.02
11:59:01 م;5.24;1.53;-2.75;-2.34;2.36;0.03
11:59:01 م;17.43;-15.14;0.75;-8.66;4.36;0.02
11:59:01 م;3.94;-17.52;16.68;3.68;2.75;0
11:59:01 م;-11.59;-2.86;4.02;8.73;-0.22;0
11:59:01 م;3.17;2.59;-3.43;0.95;1.61;0.03
11:59:01 م;17.54;-17.98;-2.79;-8.73;-0.19;0.04
11:59:02 م;6.57;-21.31;14.45;2.29;4.35;-0.01
11:59:02 م;-11.14;-7.53;7.53;8.73;0.93;-0.01
11:59:02 م;3.25;3;-1.29;1.82;0.79;0.03
11:59:02 م;3.44;-19.13;-10.66;-8.73;-0.44;0.04
11:59:02 م;13.58;-19.4;8.77;1.68;4.35;-0.01
11:59:02 م;-15.27;-10.75;3.73;8.73;1.86;-0.01
11:59:02 م;3.41;1.02;-0.07;1.68;0.72;0.03
11:59:02 م;7.81;-16.05;-7.14;-8.73;1.7;0.03
11:59:02 م;11.5;-18.24;9.93;1.07;5.38;-0.01
11:59:03 م;-15.62;-9.71;14.21;8.73;1.21;0
11:59:03 م;1.29;1.03;-0.41;1.53;0.53;0.03
11:59:03 م;8.15;-15.32;-11.77;-8.73;1.44;0.03
11:59:03 م;13.01;-14.49;5.64;1.17;4.04;0
11:59:03 م;-5.83;-9.73;12.27;8.73;1.54;-0.01
11:59:03 م;-2.24;3.74;-0.79;4.23;-1.03;0.02
11:59:03 م;-2.22;-2.49;-11.19;-5.92;5.4;0.03
11:59:03 م;14.36;-19.19;8.24;-4.98;5.45;0.01
11:59:03 م;3.5;-18.19;19.34;4.38;1.35;-0.01
11:59:03 م;-13.39;-1.69;2.8;8.73;-0.95;0
11:59:04 م;0.91;4.29;-2.27;2.18;2.64;0.02
11:59:04 م;-3.04;-14.58;-11.18;-8.73;4.06;0.04
11:59:04 م;15.24;-22.78;12.23;0.34;3.99;0
11:59:04 م;-3.23;-17.55;9.95;8.73;2.1;-0.02
11:59:04 م;-3.59;2.38;-4.41;4.07;-2.07;0.03
11:59:04 م;1.13;1.33;-7.36;-2.3;6.02;0.02
11:59:04 م;15.54;-21.58;5.89;-8.73;4.2;0.02
11:59:04 م;4.22;-20.15;23.12;4.98;2.1;-0.02
11:59:04 م;-17.42;3.64;-3.44;6.79;-1.48;0.02
11:59:05 م;0.74;2.29;-6.7;-0.47;5.31;0.02
11:59:05 م;21.19;-18.18;4.06;-8.68;3.95;0.03
11:59:05 م;6.34;-17.76;21.11;5.14;1.25;-0.01
11:59:05 م;-16.58;1.04;-2.93;8.73;-1.25;0.01
11:59:05 م;4.19;0.1;-3.22;0.76;3.43;0.03
11:59:05 م;13.43;-9.07;-2.03;-6.54;3.94;0.02
11:59:05 م;10.1;-13.5;13.4;-5.22;1.92;-0.01
11:59:05 م;-6.56;-12.86;17.4;8.73;1.6;-0.01
11:59:05 م;2.3;-3.24;-0.57;1.59;3.66;0.04
11:59:05 م;9.77;-3.83;-3.7;-4.45;4.23;0.02
11:59:06 م;5.35;-21.1;20.45;-8.73;1.69;-0.02
11:59:06 م;-28.05;-6.14;-15.62;8.73;2.88;0.02
11:59:06 م;18.05;-11.17;0.36;0.41;3.25;0.04
11:59:06 م;-1.08;-18.75;13.24;-8.73;6.34;-0.01
11:59:06 م;-9.19;-10.25;5.17;8.73;0.69;0.02
11:59:06 م;4.03;-5.49;-1.2;-2.61;-0.38;0.04
11:59:06 م;7.54;-12.12;8.1;-6.08;5.52;-0.01
11:59:06 م;-16.45;-10.55;3.31;8.73;0.48;0.02
11:59:06 م;-0.18;-1.2;-0.66;-0.18;1.77;0.04
11:59:07 م;7.91;-15.76;4.32;-8.73;5.96;0
11:59:07 م;-14.08;-22;18.2;8.73;2.59;0.01
11:59:07 م;-5.64;1.01;-7.93;4.65;0.11;0.03
11:59:07 م;10.34;-10.73;-2.21;-8.18;2.08;0.03
11:59:07 م;-0.07;-20.7;13.12;-3.37;8.73;-0.01
11:59:07 م;-17.6;-7.17;-4.35;8.73;0.11;0.02
11:59:07 م;0.6;-3.43;-4.37;-2.62;2.83;0.04
11:59:07 م;7.81;-24.43;12.1;-8.73;6.67;0
11:59:07 م;-23.97;-15.5;-2.7;8.73;4.15;0
11:59:08 م;7.94;-5.01;-0.1;0.31;-0.45;0.04
11:59:08 م;2.98;-18.61;1.83;-8.73;7.6;0
11:59:08 م;-5.77;-23.24;9.54;8.73;2.57;0.01
11:59:08 م;-10.18;1.13;-8.85;5.66;0.78;0.03
11:59:08 م;11.29;-7.87;-8.1;-6.86;1.48;0.03
11:59:08 م;-0.72;-20.92;8.41;-5.95;8.73;-0.02
11:59:08 م;-14.69;-17.7;8.77;8.73;0.31;0.02
11:59:08 م;1.82;-0.77;-2.1;0.73;0.03;0.03
11:59:08 م;2.41;-8.34;-2.08;-8.73;5.35;0.01
11:59:08 م;6.34;-16.62;10.02;-3.31;5.33;0.01
11:59:09 م;-15.17;-16.32;6.51;8.73;2.64;0.01
11:59:09 م;-5.66;-0.25;-3.59;2.07;-0.58;0.04
11:59:09 م;8.65;-6.2;-4.11;-8.14;3.59;0.02
11:59:09 م;1.57;-18.11;9.4;-5.18;5.89;0
11:59:09 م;-10.39;-15.83;10.96;8.73;1.45;0.01
11:59:09 م;-9.55;2.86;-0.97;2.28;2;0.03
11:59:09 م;1.38;-7.97;-2.15;-7.86;2.51;0.03
11:59:09 م;1.47;-19.1;7.67;-5.35;8.21;-0.01
11:59:09 م;-24.4;-16.38;13.14;8.73;2.58;0
11:59:10 م;5.03;-5.88;0.67;0.61;-2.23;0.04
11:59:10 م;-1.38;-2.54;-0.35;-4.23;3.73;0.02
11:59:10 م;6.31;-9.88;19.46;-4.81;1.16;0.01
11:59:10 م;8.71;-9.34;9.62;-1.84;-1.58;0.01
11:59:10 م;4.12;-8.79;32.59;-5.62;1.94;0
11:59:10 م;2.87;-12.75;20.2;5.77;-3.87;0.01
11:59:10 م;-8.28;0.35;-2.3;2.83;-0.97;0.03
11:59:10 م;7.29;-2.77;-2.52;-1.68;2.24;0.03
11:59:10 م;-0.86;-16.02;8.9;-8.73;3.62;0.01
11:59:10 م;-7.44;-24.3;14.14;8.43;6.85;-0.02
11:59:11 م;-6.46;-5.19;-2.8;5.63;-2.31;0.04
11:59:11 م;7.81;-4.65;-2.6;-5.98;1.91;0.03
11:59:11 م;6.2;-20.06;6.14;-8.45;4.35;0.01
11:59:11 م;-7.94;-18.84;8.79;8.73;3.2;0
11:59:11 م;-4.47;-2.75;0.06;6.36;-0.48;0.03
11:59:11 م;2.96;-1.73;-1.35;-3.11;1.13;0.03
11:59:11 م;1.36;-19.71;3.97;-8.73;2.5;0.01
11:59:11 م;7.2;-16.7;5.92;7.88;4.12;0
11:59:11 م;-7.58;-7.8;6.79;8.73;-1.08;0.02
11:59:12 م;-0.72;-2.07;1.09;-1.34;-0.89;0.03
11:59:12 م;5.35;-8.75;-2.26;-8.73;4.15;0.01
11:59:12 م;-9.56;-21.92;9.33;-1.32;7.76;0
11:59:12 م;-7.2;-11.26;3.33;8.73;0.13;0.02
11:59:12 م;-3.11;-2.4;-0.29;-1.3;-0.03;0.04
11:59:12 م;10.13;-17.98;-0.91;-8.73;3.38;0.01
11:59:12 م;-4.58;-25.26;14.69;7.47;5.96;0
11:59:12 م;-6.89;-2.74;-9.77;8.01;-1.6;0.03
11:59:12 م;7.39;-5.86;-9.21;-8.43;2.39;0.03
11:59:12 م;4.89;-25.41;12.83;-8.73;4.83;0.01
11:59:13 م;-11.71;-22.85;8.82;8.73;4.78;0
11:59:13 م;-0.75;-2.2;-3.39;0.95;1.17;0.03
11:59:13 م;5.74;-7.71;-12.19;-8.73;3.43;0.02
11:59:13 م;7.77;-23.9;11.57;0.09;4.13;0.01
11:59:13 م;-23.48;-11.36;3.82;8.73;1.34;0.01
11:59:13 م;1.09;-5.82;1.45;-1.73;0.5;0.04
11:59:13 م;5.01;-20.36;-2.5;-8.73;5.15;0.01
11:59:13 م;-8.72;-30.33;12.74;8.73;7.47;-0.01
11:59:13 م;-1.94;-4.18;-5.49;5.37;-0.05;0.04
11:59:14 م;5.19;-9.81;-10.28;-8.73;4.52;0.03
11:59:14 م;3.87;-28.12;7.54;-2.53;8.49;0
11:59:14 م;-18.78;-15.54;0.06;8.73;2.14;0.02
11:59:14 م;2.48;-1.85;-0.74;-1.53;3.21;0.03
11:59:14 م;9.79;-22.45;0.01;-8.73;3.48;0.01
11:59:14 م;0.38;-23.87;6.53;3.82;6.36;-0.01
11:59:14 م;-6;-8.26;-1.7;8.73;-1.74;0.02
11:59:14 م;0.71;-1.7;3.19;-0.74;0.16;0.03
11:59:14 م;6.44;-6.96;1.74;-6.89;1.76;0.01
11:59:14 م;0.68;-15.8;4.43;-6.19;4.94;0
11:59:15 م;1.98;-12.08;4.75;2.07;1.13;0.01
11:59:15 م;-1.91;-7.81;2.09;6.68;0.2;0.01
11:59:15 م;1.3;-1.02;2.97;2.87;-0.55;0.02
11:59:15 م;3.76;-3.4;5.06;-0.15;-1.25;0.02
11:59:15 م;6.92;-5.83;5.11;-2.95;1.56;0.02
11:59:15 م;3.75;-10.76;1.82;-6.71;0.76;0.01
11:59:15 م;-1.59;-13.34;1.25;-1.62;4.97;0
11:59:15 م;0.47;-14.25;12.25;8.73;1.24;0.01
11:59:15 م;1.84;-1.3;-0.79;7.46;-2.62;0.02
11:59:16 م;-3.93;1.67;3.07;0.44;0.48;0.03
11:59:16 م;4.62;-2.13;1.25;-5.66;2.42;0.02
11:59:16 م;1.89;-12.47;4.2;-8.73;3.28;0.01
11:59:16 م;9.26;-8.79;-1.36;1.53;4.46;0.01
11:59:16 م;-1.68;-13.09;9.17;6.78;1.62;0.01
11:59:16 م;-2.8;-4.83;9.42;6.78;-1.77;0.02
11:59:16 م;-2.49;-0.19;5.68;0.41;1.28;0.02
11:59:16 م;6.71;-1.65;4.08;-2.19;0.81;0.02
11:59:16 م;-1.22;-10.57;-0.14;-8.73;1.89;0.01
11:59:16 م;4.36;-12.93;2.26;-0.47;4.29;0.01
11:59:17 م;-2.13;-12.9;4.45;1.82;2.3;0.01
11:59:17 م;-4.78;-9.86;6.52;8.73;-0.07;0.01
11:59:17 م;2.78;-0.94;7.15;2.04;-0.99;0.02
11:59:17 م;-0.74;0;4.7;0.76;0.97;0.02
11:59:17 م;4.45;-5.26;0.36;-7.24;1.48;0.02
11:59:17 م;5.56;-16.46;4.9;-8.33;3.84;0.01
11:59:17 م;1.62;-14.85;4.38;4.47;5.17;0
11:59:17 م;-5.4;-5.57;5.62;6.67;-1.38;0.02
11:59:17 م;-3.47;-2.73;4.81;2.11;0.9;0.03
11:59:18 م;3;-7.4;-2.06;-8.38;3.24;0.02
11:59:18 م;-0.85;-20.02;3.22;-7.65;5.78;0.01
11:59:18 م;-8.19;-18.68;1.21;8.73;5.57;0
11:59:18 م;-0.59;-3.62;6.04;3.23;-0.93;0.03
11:59:18 م;1.46;-1.87;1.35;-0.26;1.27;0.03
11:59:18 م;5.59;-17.27;1.06;-8.73;4.17;0.01
11:59:18 م;4.6;-12.43;-0.03;3.51;4.15;0
11:59:18 م;-4.65;-11.56;4.33;8.42;-1.32;0.02
11:59:18 م;1.53;-2.77;1.89;4.26;0.73;0.02
11:59:19 م;5.09;-5.71;-2.21;-6.18;0.54;0.03
11:59:19 م;-2.59;-15.32;3.03;-8.73;4.55;0
11:59:19 م;2.99;-12.79;-1.85;0.83;4.92;0.01
11:59:19 م;-3.37;-15.2;1.7;8.73;0.29;0.02
11:59:19 م;-8.19;-3.36;1.2;5.2;0.21;0.03
11:59:19 م;1.37;-4.08;-1.9;-4.54;2.85;0.02
11:59:19 م;4;-18.59;1.4;-8.73;8.7;0
11:59:19 م;-6.19;-23;2.54;8.73;6.23;0
11:59:19 م;-0.66;-7.47;-2.93;8.73;-2.88;0.03
11:59:19 م;4.58;-3.06;5.06;1.06;0.02;0.03
11:59:20 م;0.99;-9.85;-0.65;-8.73;4.04;0.01
11:59:20 م;0.74;-17.76;-1.08;-4.92;5.93;0.01
11:59:20 م;-4.27;-19.01;2.95;8.73;4.5;0.01
11:59:20 م;1.1;-4.8;4.77;6.14;-2.36;0.03
11:59:20 م;1.36;-1;0.95;-1;-0.79;0.03
11:59:20 م;5.16;-15.98;-2.89;-8.73;3.88;0.01
11:59:20 م;5.02;-13.64;-1.91;1.15;4.95;0.01
11:59:20 م;0.87;-11.81;1.2;8.73;1.91;0.01
11:59:20 م;-1.6;-2.39;5.11;6.23;0.01;0.02
11:59:21 م;1.54;-2.22;4.2;-0.26;-0.35;0.03
11:59:21 م;10.01;-13.62;-0.43;-8.73;2.14;0.01
11:59:21 م;1.35;-14.17;-0.94;-2.31;5.53;0
11:59:21 م;-1.94;-12.84;1.47;8.73;-0.2;0.02
11:59:21 م;2.85;-1.12;3.29;3.05;-0.33;0.02
11:59:21 م;5.84;-3.14;2.19;-2.94;-1.57;0.03
11:59:21 م;5.28;-14.56;0.42;-8.73;2.86;0.01
11:59:21 م;1.12;-11.44;-2.2;-0.64;4.84;0.01
11:59:21 م;2.09;-14.09;3.46;8.73;2.18;0.01
11:59:21 م;-3.42;-5.39;5.07;7.31;-0.21;0.02
11:59:22 م;4.74;-3.4;5.53;-0.9;-1.02;0.03
11:59:22 م;2.68;-8.89;0.62;-8.24;1.95;0.01
11:59:22 م;1.29;-17.43;1.4;-5.95;7.76;0
11:59:22 م;-0.45;-14.25;5.04;8.73;2.42;0.01
11:59:22 م;-2.64;-4.63;4.66;7.91;-0.36;0.02
11:59:22 م;1;-0.51;2.65;0.65;-0.23;0.03
11:59:22 م;3.18;-7.36;0.6;-8.73;2.38;0.02
11:59:22 م;5.24;-17.73;5.32;-5.33;4.03;0.01
11:59:22 م;-2.92;-15.05;4.5;5.42;5.24;0
11:59:23 م;0.13;-5.64;7.06;7.75;0.86;0.01
11:59:23 م;-2.23;2.15;2.32;4.15;1.28;0.02
11:59:23 م;8.26;0.45;-1.38;-1.04;-0.13;0.03
11:59:23 م;-0.69;-14.31;3;-8.73;2.82;0.01
11:59:23 م;3.23;-15.67;2.07;1.45;4.46;0.01
11:59:23 م;-5.37;-12.37;5.03;8.73;4.19;0.01
11:59:23 م;-7.08;-3.1;5.59;8.41;-0.11;0.02
11:59:23 م;7.91;0.28;2.21;0.81;0.63;0.03
11:59:23 م;2.14;-7.32;-0.35;-8.73;3.82;0.01
11:59:23 م;6.95;-17.83;7.37;-2.34;5.72;0.01
11:59:24 م;-10.33;-13.04;1.79;8.73;3.74;0.01
11:59:24 م;0.46;1.67;0.12;5.1;-0.58;0.02
11:59:24 م;6.43;-4.04;-0.29;-1.42;0.65;0.04
11:59:24 م;3.94;-13.54;5.29;-8.73;3.59;0
11:59:24 م;1.85;-13.88;5.81;8.01;5.11;-0.01
11:59:24 م;-5.42;-2.08;9.77;6;-1.66;0.02
11:59:24 م;-1.02;0.58;5.75;1.98;0.4;0.03
11:59:24 م;5.65;-1.4;-1.42;-4.2;2.41;0.02
11:59:24 م;3.43;-12.64;10.93;-8.73;1.62;0.01
11:59:25 م;5.41;-16.55;7.82;3.61;4.56;0
11:59:25 م;-6.91;-3.82;0.96;8.73;-2.11;0.02
11:59:25 م;-3.89;0.84;3.23;3.09;1.45;0.03
11:59:25 م;6.82;-1.07;0.28;-4.1;2.62;0.02
11:59:25 م;5.94;-17.12;2.97;-8.73;3.93;0.01
11:59:25 م;4.87;-16.9;6.43;6.8;4.85;0.01
11:59:25 م;-10.71;-7.47;4.09;8.73;-0.46;0.02
11:59:25 م;6.56;-2.27;1.26;-0.1;-3.25;0.04
11:59:25 م;6.33;-3.93;0.31;-7.86;2.71;0.01
11:59:25 م;3.09;-14.55;5.5;-7.81;3.85;0.01
11:59:26 م;0.09;-15.54;10.03;7.1;2.79;0.01
11:59:26 م;-2.94;-5.94;6.05;8.73;-0.92;0.02
11:59:26 م;1.04;0.68;0.27;3.87;-1.75;0.03
11:59:26 م;3.83;-1.71;-5.49;-5.79;5;0.02
11:59:26 م;6.17;-22.56;10.6;-8.73;4.57;0.01
11:59:26 م;8.48;-18.64;5.06;8.73;3.83;-0.01
11:59:26 م;-8.74;-0.55;5.43;7.96;-2.93;0.02
11:59:26 م;-6.29;2.7;0.46;2.35;1.65;0.04
11:59:26 م;2.75;-6.78;-4.92;-7.86;6.99;0.01
11:59:27 م;10.42;-17.48;9.95;-5.83;2.45;0.01
11:59:27 م;-8.29;-8.57;5.25;5.85;-0.57;0
11:59:27 م;-10.23;-8.05;8.55;6.06;2.49;-0.01
11:59:27 م;1.85;3.19;0.32;6.4;-1.47;0.02
11:59:27 م;7.7;2.8;-0.74;2.77;-2.41;0.02
11:59:27 م;4.85;2.58;-7.97;1.2;2.26;0.02
11:59:27 م;11.23;-5.74;-10.52;0.92;6.52;0.02
11:59:27 م;1.03;-3.44;5.78;-2.26;5.64;0.01
11:59:27 م;-5.82;-6.2;12.99;-4.18;5.02;0
11:59:27 م;-11.67;-7.93;5.6;1.22;4.47;0
11:59:28 م;0.55;-4.28;7.21;1.29;-0.16;0.01
11:59:28 م;3.33;-2.47;12.21;1.54;-1.39;0.01
11:59:28 م;2.01;-0.9;8.37;4.88;-0.41;0.01
11:59:28 م;1.4;1.87;-0.04;1.64;0.93;0.02
11:59:28 م;4.92;0;5.75;-1.24;1.42;0.02
11:59:28 م;4.81;-7.4;7.51;-6.97;2.89;0.01
11:59:28 م;5.01;-10.46;7;-2.91;2.62;0.01
11:59:28 م;-0.87;-13.13;13.46;1.68;2.19;0
11:59:28 م;-2.93;-1.79;-1.07;7.22;0.18;0.01
11:59:29 م;2.82;-0.75;-0.38;0.47;-3.77;0.03
11:59:29 م;2.8;-2.54;2.29;-2.6;5.28;0.02
11:59:29 م;8.24;-12.99;8.93;-5.65;2.33;0.02
11:59:29 م;0.46;-13.11;10.32;3.1;1.61;0
11:59:29 م;-8.56;-6.61;0.56;8.73;-0.44;0.01
11:59:29 م;-3.48;2.28;-0.77;2.89;-0.18;0.03
11:59:29 م;11.82;-2.32;-0.57;-4.72;2.13;0.02
11:59:29 م;4.03;-11.52;5.96;-8.73;2.06;0.01
11:59:29 م;3.64;-12.08;4.33;0.74;5.5;0
11:59:29 م;-4.89;-11.66;10.62;8.09;1.12;0.01
11:59:30 م;-2.74;-0.06;-0.22;6.72;-2.28;0.02
11:59:30 م;2.84;2.27;-4.94;0.8;-0.5;0.03
11:59:30 م;8.23;-5.62;2;-5.46;3.54;0.02
11:59:30 م;3.62;-16.59;8.96;-7.67;5.95;0
11:59:30 م;-0.71;-16.83;15.15;5.64;4.16;0
11:59:30 م;-2.99;-2.14;-1.49;8.25;-1.75;0.02
11:59:30 م;1.87;2;0.87;1.55;-1.64;0.03
11:59:30 م;6.56;-3.38;-0.35;-6.08;3.42;0.02
11:59:30 م;6.09;-14.49;8.31;-6;4.97;0.01
11:59:31 م;-0.65;-13.38;8.85;5.9;4.2;0
11:59:31 م;-2.56;-2.73;0.69;8.73;-0.87;0.02
11:59:31 م;0.94;2.34;1.7;0.75;-0.53;0.03
11:59:31 م;8.84;-2.12;-0.62;-5.48;2.35;0.02
11:59:31 م;3.38;-12.39;7.3;-7.39;5.13;0
11:59:31 م;-3.51;-14.03;13.16;7.07;3.51;0
11:59:31 م;-0.74;0.14;4.53;4.53;-1.33;0.02
11:59:31 م;4.12;0.41;1.41;-0.35;-2.01;0.03
11:59:31 م;3.69;-3.34;-2.25;-5.71;2.27;0.02
11:59:32 م;5.1;-17.48;6.63;-7.83;7.56;0
11:59:32 م;0.65;-13.83;6.46;7.1;5.2;0
11:59:32 م;-4.15;-3.89;1.47;8.52;-0.14;0.02
11:59:32 م;6.64;-0.69;0.88;0.03;-2.63;0.03
11:59:32 م;4.36;-3.81;1.87;-6.17;2.54;0.01
11:59:32 م;4.26;-17.26;6.28;-7.74;7.59;0
11:59:32 م;-12.62;-10.52;5.08;8.73;3.59;0
11:59:32 م;1.1;-0.26;-4.95;2.97;-0.86;0.03
11:59:32 م;8.69;-1.73;-0.57;-5.61;2.29;0.02
11:59:32 م;4.63;-15.09;5.66;-7.52;4.91;0.01
11:59:33 م;-7.61;-13.15;7.29;7.82;3.77;0.01
11:59:33 م;0.23;-1.31;2.09;6.38;-0.82;0.02
11:59:33 م;2.49;0.81;-2.19;-1.33;0.27;0.03
11:59:33 م;9.96;-15.27;1.06;-8.73;4.36;0.01
11:59:33 م;-4.04;-22.17;16.76;4.47;2.87;0
11:59:33 م;-1.09;-4.93;1.3;8.73;-2.04;0.02
11:59:33 م;3.12;0.46;-0.88;-0.57;-2.31;0.03
11:59:33 م;5.77;-7.75;0.94;-8.01;2.54;0.01
11:59:33 م;-3.27;-15.93;8.8;-4.77;6.73;0
11:59:34 م;1.44;-13.83;8.06;8.73;2.67;0.01
11:59:34 م;-5.15;-0.9;3.8;6.9;-1.21;0.03
11:59:34 م;7.03;-1.78;-0.77;-2.7;0.92;0.03
11:59:34 م;6.31;-14.18;5.15;-8.73;3.5;0.01
11:59:34 م;-3.35;-20.09;15.86;7.04;5.13;0
11:59:34 م;-2.85;-3.33;3.55;8.25;-2.4;0.02
11:59:34 م;6.2;0.01;0.48;-0.67;-2.48;0.03
11:59:34 م;6.32;-5.47;0.61;-8.55;2.77;0.02
11:59:34 م;4.08;-15.69;5.39;-3.43;6.12;0
11:59:34 م;-6.62;-13.62;10;8.73;1.89;0.01
11:59:35 م;-1.09;3.17;-6.08;4.02;-0.51;0.03
11:59:35 م;8.53;0.2;1.48;-1.99;1.32;0.02
11:59:35 م;4.85;-14.49;4.14;-8.73;3.23;0.01
11:59:35 م;-0.6;-20.83;16.49;5.04;5.32;0
11:59:35 م;-5.49;-2.13;1.91;8.5;-1.35;0.02
11:59:35 م;5.64;-0.19;-4.22;2.48;-1.21;0.03
11:59:35 م;6.77;-1.98;-3.23;-6.01;3.04;0.02
11:59:35 م;7.23;-20.71;8.64;-8.73;6.9;0
11:59:35 م;-3.43;-15.53;11.71;7.37;2.06;0.01
11:59:36 م;-1.11;-1.95;3.16;8.38;-1.55;0.02
11:59:36 م;6.33;0.51;-2.75;1.22;-2.4;0.03
11:59:36 م;2.68;-7.38;-0.83;-8.73;4.12;0.01
11:59:36 م;3.67;-20.38;7.51;-4.31;7.56;0
11:59:36 م;-8.9;-16.07;6.73;8.73;1.67;0.02
11:59:36 م;5.5;2.24;-5.1;2.56;-0.95;0.03
11:59:36 م;8.4;-3.1;-3.9;-7.64;2.6;0.02
11:59:36 م;10.08;-20.84;7.5;-8.73;4.88;0.01
11:59:36 م;-1.86;-18.15;9.2;8.73;1.9;0.01
11:59:36 م;-5.93;0.71;-4.7;3.97;-1.82;0.03
11:59:37 م;7.13;-0.11;0.14;-1.51;2.29;0.02
11:59:37 م;3.97;-13.58;6.16;-8.73;4.66;0.01
11:59:37 م;2.05;-15.07;6.9;-0.7;2.75;0.01
11:59:37 م;-6.12;-8.23;2.05;8.73;0.73;0.01
11:59:37 م;-5.16;2.42;-0.56;2.09;-0.85;0.03
11:59:37 م;6.79;-2.38;1.25;-4.46;2.21;0.02
11:59:37 م;8.82;-17.44;4.1;-8.73;3.8;0.01
11:59:37 م;-2.3;-17.81;9.93;8.09;4.15;0
11:59:37 م;-4.39;-0.63;-1.07;8.37;-1.59;0.02
11:59:38 م;10.89;-0.56;-1.63;0.44;-0.03;0.03
11:59:38 م;3.74;-9.46;-0.13;-8.73;4.18;0.01
11:59:38 م;0.17;-22.8;14.9;0.95;7.69;0
11:59:38 م;-7.63;-7.14;4.27;8.73;-1.13;0.02
11:59:38 م;6.57;-3.28;-3.28;2.89;-2.8;0.04
11:59:38 م;6.68;-5.24;-2.49;-6.83;3.55;0.02
11:59:38 م;4.98;-22.84;7.84;-8.73;8.54;-0.01
11:59:38 م;-3.85;-13.19;7.34;8.73;-0.34;0.02
11:59:38 م;1.58;-0.09;-1.41;4.72;-1.51;0.03
11:59:38 م;5.09;0.65;1.45;-0.08;1.62;0.03
11:59:39 م;5.02;-12.76;7.61;-8.73;3.81;0.01
11:59:39 م;1.09;-17.77;9.32;-1.47;7.07;-0.01
11:59:39 م;-5.28;-8.04;0.18;8.73;-1.66;0.02
11:59:39 م;3.9;-1.16;0.92;1.37;-1.08;0.04
11:59:39 م;5.1;-5.63;-1.81;-8.73;4.53;0.01
11:59:39 م;3.22;-21.02;4.66;-6.92;7.49;0
11:59:39 م;-3.75;-14.42;8.37;8.73;3.09;0.01
11:59:39 م;-9.04;0.89;-0.99;3.35;-0.93;0.04
11:59:39 م;7.49;-2.84;-4.09;-6.8;3.51;0.02
11:59:40 م;4.37;-18.82;5.39;-8.41;4.64;0.01
11:59:40 م;-3.64;-15.48;4.21;8.29;3.75;0.01
11:59:40 م;-4.09;-4.49;6.99;8.73;-0.63;0.02
11:59:40 م;5.7;-0.45;-0.38;0.24;-1.25;0.03
11:59:40 م;5.74;-10.15;-0.17;-8.73;3.74;0.01
11:59:40 م;0.35;-15.69;7.55;-1.95;6.73;0
11:59:40 م;-6.07;-10.81;6.85;8.73;0.73;0.01
11:59:40 م;0.36;-0.42;0.43;1.37;-2.45;0.03
11:59:40 م;4.19;-3.18;-1.13;-5.44;1.89;0.02
11:59:40 م;4.01;-16.4;3.4;-8.73;7.4;0
11:59:41 م;-0.05;-17.33;7.04;8.22;3.65;0.01
11:59:41 م;-1.71;-4.5;3.24;8.73;-1.39;0.02
11:59:41 م;1.77;2.07;-2.03;-1.34;-1.43;0.03
11:59:41 م;7.63;-11.51;-0.05;-8.73;3.31;0.01
11:59:41 م;4.24;-14.69;2.82;-1;4.23;0.01
11:59:41 م;-2.51;-10.81;5.23;8.73;2.32;0.01
11:59:41 م;-5.17;-1.58;2.85;7.3;-1.46;0.03
11:59:41 م;12.68;-1.79;1.34;-2.9;1.1;0.03
11:59:41 م;6.12;-16.19;2.45;-8.73;4.19;0.01
11:59:42 م;0.55;-15.54;4.12;2.23;4.1;0.01
11:59:42 م;-7.07;-8.38;5.66;8.73;1.28;0.01
11:59:42 م;-5.32;0.69;-3.05;4.05;-0.57;0.03
11:59:42 م;9.29;-3.69;-2.24;-6.81;3.27;0.02
11:59:42 م;2.51;-21.11;4.07;-8.73;5.18;0.01
11:59:42 م;1.47;-19.22;4.39;8.73;3.23;0.01
11:59:42 م;-5.28;-5.95;7.22;8.73;-1.66;0.02
11:59:42 م;6.82;-2.86;1.72;-0.41;-2.08;0.04
11:59:42 م;4.52;-9.52;0.5;-8.73;2.81;0.01
11:59:42 م;3.74;-16.21;2.8;-2.48;6.56;0.01
11:59:43 م;-1.92;-13.3;5.64;8.73;2.73;0.01
11:59:43 م;-8.56;-0.82;-1.18;5.91;-0.85;0.03
11:59:43 م;12.11;-3.46;-2.85;-5.97;2.21;0.02
11:59:43 م;3.3;-19.78;2.68;-8.73;4.42;0.01
11:59:43 م;1.36;-18.16;4.6;8.73;4.15;0
11:59:43 م;-3.75;-3.36;7.57;7.08;-0.6;0.01
11:59:43 م;0.59;-1.81;1.09;0.38;-1.77;0.04
11:59:43 م;6.91;-6.35;-2.07;-8.73;1.86;0.02
11:59:43 م;2.47;-17.86;5.28;-5.35;3.34;0.01
11:59:44 م;-0.19;-16.52;4.89;8.73;4.94;0
11:59:44 م;-5.07;-4.51;5.45;8.73;-0.8;0.02
11:59:44 م;10.25;-4.43;1.26;-1.81;-1.16;0.04
11:59:44 م;4.75;-11.13;0.7;-8.73;3.43;0.01
11:59:44 م;3.99;-14.44;1.28;-0.6;5.4;0.01
11:59:44 م;-3.49;-13.8;4.61;8.73;3.13;0.01
11:59:44 م;-3.12;-2.51;-2.9;1.61;-2.36;0.04
11:59:44 م;5.37;-7.22;-5.49;-8.73;3.11;0.02
11:59:44 م;4.24;-17.31;2.69;-3.18;6.57;0.01
11:59:45 م;-5.68;-14.18;4.81;8.73;3.24;0.01
11:59:45 م;-4.98;-1.07;-1.82;3.53;-1.42;0.03
11:59:45 م;11.32;-6.05;-4.17;-8.73;2.33;0.02
11:59:45 م;2.64;-17.56;6.15;-3.57;4.59;0.01
11:59:45 م;-7.77;-13.81;8.36;8.73;2.5;0.01
11:59:45 م;-4.83;0.98;-5.33;3.69;-0.55;0.03
11:59:45 م;8.65;-5.72;-2.58;-8.73;3.11;0.02
11:59:45 م;3.63;-18.38;3.7;-6.37;4.48;0.01
11:59:45 م;-5.83;-16.67;4.68;8.73;3.91;0
11:59:45 م;-4.29;-3.59;1.69;7.39;-0.76;0.02
11:59:46 م;8.63;-4.52;0.36;-4.32;-1.61;0.03
11:59:46 م;6.17;-16.99;1.82;-8.73;3.62;0.01
11:59:46 م;-4.05;-19.84;6.11;6.94;6.77;0
11:59:46 م;-5.04;-5.74;6.57;8.73;0;0.02
11:59:46 م;1;-2.76;2.02;0.42;-1.73;0.04
11:59:46 م;5.28;-7.53;-1.42;-8.73;2.94;0.01
11:59:46 م;2.72;-16.93;4.6;-4.12;6.66;0.01
11:59:46 م;-4.46;-12.47;5.27;8.73;3.5;0.01
11:59:46 م;-5.55;-0.87;-1.02;6.36;-1.28;0.03
11:59:47 م;13.68;-3.13;3.29;-1.21;-0.74;0.03
11:59:47 م;5.32;-14.14;3.12;-8.73;2.37;0.01
11:59:47 م;3.46;-14.59;1.76;0.25;7.1;0
11:59:47 م;-0.79;-8.78;6.15;8.73;1.42;0.01
11:59:47 م;-5.58;0.24;-1.47;3.83;-0.52;0.03
11:59:47 م;8.44;-4.28;-1.25;-6.45;1.01;0.02
11:59:47 م;5.65;-19.43;4.2;-8.73;3.97;0.01
11:59:47 م;2.8;-19.43;5.01;8.73;3.68;0.01
11:59:47 م;-4.6;-7.22;14.85;7.74;-0.98;0.01
11:59:47 م;-1.03;1.35;-1.15;6.95;-2.37;0.03
11:59:48 م;6.18;1;-1.04;-0.48;0.14;0.03
11:59:48 م;7.09;-8.36;2.68;-8.73;3.87;0.01
11:59:48 م;-1.05;-14.16;7.66;-2.77;5.08;0.01
11:59:48 م;1.77;-15.16;14.41;5.48;-1.47;0.01
11:59:48 م;-5.81;-3.61;-3.66;8.73;-2.59;0.01
11:59:48 م;1.28;2.05;-1.72;-0.55;-0.51;0.03
11:59:48 م;10.46;-9.98;1.36;-8.73;3.16;0.01
11:59:48 م;6.25;-15.69;12.8;0.53;6.64;-0.01
11:59:48 م;-4.83;-4.99;2.81;8.73;0.16;0.01
11:59:49 م;2.61;5.2;-4.19;-0.22;3.18;0.02
11:59:49 م;9.65;-8.25;-3.76;-8.73;0.13;0.02
11:59:49 م;2.21;-12.78;10.14;-5.52;4.97;0.01
11:59:49 م;11.44;-14.62;13.71;6.7;3.32;0
11:59:49 م;-4.84;-0.05;4.93;6.54;-2.95;0.02
11:59:49 م;2.89;5.67;0.11;4.18;1.64;0.01
11:59:49 م;7.69;2.68;-5.1;-3.12;-0.39;0.03
11:59:49 م;8.87;-14.63;1.64;-8.73;4.72;0.01
11:59:49 م;-7.22;-20.44;19.79;8.16;-0.37;0.01
11:59:49 م;-5.6;-0.53;5.8;8.03;-2.07;0.01
11:59:50 م;-0.41;5.18;0.95;1.66;0.09;0.02
11:59:50 م;10.86;0.11;-4.12;-3.04;-0.02;0.02
11:59:50 م;10.16;-9.86;5.97;-8.73;5.68;0.01
11:59:50 م;4.52;-13.41;20.48;8.73;0.03;0.01
11:59:50 م;-3.87;1.13;2.82;6.63;-3.72;0.02
11:59:50 م;-2.81;4.91;-2.1;0.75;-1.43;0.03
11:59:50 م;12.1;-4.58;-5.49;-3.59;0.77;0.02
11:59:50 م;15.05;-13.08;1.38;-8.73;5.29;0.01
11:59:50 م;1.19;-10.67;16.4;5.24;2.27;0.01
11:59:51 م;-5.43;-0.73;5.74;8.73;-0.71;0.02
11:59:51 م;3.45;3.6;-2.38;-0.73;-0.82;0.02
11:59:51 م;15.5;-4.91;-10.96;-8.48;1.55;0.02
11:59:51 م;10.47;-16.54;6.18;-6.98;5.9;0.02
11:59:51 م;1.28;-14.94;10.32;8.73;1.46;0
11:59:51 م;-1.12;2.1;-3.27;7.64;-1.81;0.02
11:59:51 م;5.2;2.49;-4.29;-1.91;-2.44;0.03
11:59:51 م;8.6;-10.93;-1.96;-8.73;3.32;0.02
11:59:51 م;3.8;-12.76;8.18;-0.08;6.68;0.01
11:59:51 م;-3.48;-10.05;10.18;8.73;0.85;0.01
11:59:52 م;-3.02;4.28;-3.38;4.06;-0.89;0.02
11:59:52 م;12.21;-0.96;-5.66;-3.75;-0.21;0.02
11:59:52 م;9.51;-17.74;2.61;-8.73;5.63;0.01
11:59:52 م;5.11;-13.1;11.27;8.73;2.88;0
11:59:52 م;-3.07;1.7;-3.94;7.76;-3.19;0.02
11:59:52 م;2.86;2.3;-3.94;0.41;-0.51;0.02
11:59:52 م;12.79;-7.23;-5.07;-7.15;2.38;0.02
11:59:52 م;8.09;-13.03;7.68;-4.02;7.12;0.01
11:59:52 م;2.57;-10.58;9.67;7.81;2.64;0
11:59:53 م;0.15;2.19;-3.19;6.23;-2.48;0.02
11:59:53 م;2.1;1.56;-3.85;-1.28;-0.61;0.03
11:59:53 م;9.03;-12.75;-2.79;-8.73;4.23;0.02
11:59:53 م;6.5;-13.35;7.28;3.03;6.85;0.01
11:59:53 م;-4.26;-9.57;11.43;8.73;-0.8;0.01
11:59:53 م;1.97;4.51;-4.57;4.26;-1.46;0.02
11:59:53 م;7.94;0.38;-3.04;-1.23;-1.62;0.03
11:59:53 م;8.21;-12.45;-3.14;-8.73;3.62;0.02
11:59:53 م;2.97;-17.25;12.57;1.49;6.2;0.01
11:59:53 م;-9.22;-6.69;7.44;8.64;2.17;0
11:59:54 م;0.09;4.86;-3.74;4.26;-0.77;0.02
11:59:54 م;7.81;-0.61;-3.53;-2.03;-1.05;0.03
11:59:54 م;8.29;-13.92;-0.02;-8.73;4.25;0.02
11:59:54 م;7.14;-15.36;10;3.79;5.77;0
11:59:54 م;-10.18;-6.63;6.44;8.73;1.39;0
11:59:54 م;3.12;6;-6.5;3.55;0.18;0.02
11:59:54 م;5.99;0.3;-4.66;-1.83;-0.93;0.03
11:59:54 م;6.21;-14.96;0.19;-8.73;4.62;0.02
11:59:54 م;9.11;-15.06;4.96;3.8;6.94;0
11:59:55 م;-8.87;-3.95;3.44;8.73;1.3;0
11:59:55 م;1.87;5.37;-3.32;3.97;0.52;0.02
11:59:55 م;9.53;-0.12;-3.27;-1.52;-1.28;0.03
11:59:55 م;10.19;-12.82;-1.97;-8.73;2.55;0.02
11:59:55 م;5.94;-15.14;10.63;0.8;5.04;0.01
11:59:55 م;-5.48;-5.6;6.34;8.27;1.9;0
11:59:55 م;1.26;4.67;-0.29;3.7;-0.22;0.02
11:59:55 م;7.15;-1.05;-5.59;-4.87;-1.63;0.03
11:59:55 م;10.98;-16.13;1.43;-8.73;3.36;0.02
11:59:56 م;3.47;-14.98;12.3;6.47;4.49;0
11:59:56 م;-4.72;-1.96;3.45;8.45;-0.99;0.01
11:59:56 م;3.26;3.85;-1.22;1.07;-0.34;0.02
11:59:56 م;11.15;-5.08;-6.68;-7.66;-0.84;0.03
11:59:56 م;14.29;-17.6;6.05;-5.81;4.41;0.01
11:59:56 م;-0.12;-12.33;8.05;8.33;3.32;0
11:59:56 م;-2.28;0.62;2.6;6.72;-2.04;0.02
11:59:56 م;5.32;2.12;0.86;0.94;-1.12;0.02
11:59:56 م;10.01;-5.18;-4.76;-7.76;0.68;0.02
11:59:56 م;11.42;-13.22;6.45;-5.55;7.31;0.01
11:59:57 م;1.53;-9.52;7.55;6.2;3.5;0
11:59:57 م;-1.03;-0.71;1.19;7.87;-2.26;0.02
11:59:57 م;4.83;3.91;-0.95;1.09;0.53;0.02
11:59:57 م;11.29;-4.3;-5.74;-7.11;0.79;0.03
11:59:57 م;13.78;-14.18;5.82;-5.39;4.2;0.01
11:59:57 م;3.04;-11.92;7.74;8.73;3.29;-0.01
11:59:57 م;0.55;3.97;-1.6;4.3;-1.78;0.02
11:59:57 م;3.94;3.22;-1.5;-0.04;-0.02;0.02
11:59:57 م;11.88;-5.41;-4.1;-5.96;0.33;0.03
11:59:58 م;6.92;-12.11;6.05;-4.39;6.58;0.01
11:59:58 م;4.75;-11.94;15.45;7.32;2.84;-0.01
11:59:58 م;-1.3;2.98;-2;6.01;-2.57;0.02
11:59:58 م;3.5;3.78;-1.74;-0.44;-0.3;0.03
11:59:58 م;11.39;-6.6;-3.5;-6.53;-0.3;0.03
11:59:58 م;7.13;-14.18;7.42;-2.87;5.71;0.01
11:59:58 م;-0.57;-12.42;11.33;8.73;3.34;0
11:59:58 م;1.19;4.28;-0.91;4.13;-2.29;0.02
11:59:58 م;5.19;2.66;-5.1;-3.72;-1.7;0.03
11:59:58 م;9.71;-10.86;0.12;-7.65;1.57;0.02
11:59:59 م;7.07;-15.1;15.59;3.24;6.05;0
11:59:59 م;-7.02;-3.45;6.16;8.27;-0.63;0.01
11:59:59 م;1.25;3.68;-0.31;1.52;-1.35;0.02
11:59:59 م;9.84;-1.55;-5.03;-3.17;-0.1;0.03
11:59:59 م;12.96;-13.84;5.75;-8.17;4.02;0.01
11:59:59 م;4.38;-10.57;10.94;4.3;4.33;0
11:59:59 م;-2.55;0.11;5.26;6.32;-2.33;0.02
11:59:59 م;1.64;3.82;-0.63;0.11;-1.99;0.03
11:59:59 م;10.83;-4.59;-4.88;-4.81;0.17;0.03
12:00:00 ص;8.14;-11.38;6.3;-3.35;5.16;0.01
12:00:00 ص;0.79;-10.52;9.53;8.73;2.56;0
12:00:00 ص;0.26;1.68;7.2;4.27;-1.14;0.02
12:00:00 ص;4.17;2.65;-2.6;-1.41;-0.62;0.03
12:00:00 ص;12.24;-8.51;-0.13;-7.47;0.95;0.03
12:00:00 ص;9.84;-10.7;7.75;1.22;3.59;0.01
12:00:00 ص;-7.3;-8.61;17.01;6.68;2.22;0
12:00:00 ص;-0.31;2.45;0.02;4.54;-2;0.03
12:00:00 ص;4.19;1.76;-1.92;-1.15;0.1;0.03
12:00:00 ص;13.24;-12.19;-0.38;-8.73;0.84;0.02
12:00:01 ص;1.78;-12.76;7.58;-0.32;7.02;0
12:00:01 ص;-2.6;-8.14;11.33;8.73;0.67;0
12:00:01 ص;-0.18;3.26;1.39;3.37;-1.09;0.02
12:00:01 ص;6.7;1.33;-1.41;-1.74;0.01;0.02
12:00:01 ص;15.11;-7.75;2.57;-6.82;1.56;0.02
12:00:01 ص;2.45;-9.68;10.36;-1.33;3.54;0
12:00:01 ص;-0.92;-4.05;6.64;6.47;1.25;0
12:00:01 ص;0.44;3.54;0.81;3.83;-0.61;0.02
12:00:01 ص;6.78;2.06;-1.25;-2.06;-0.59;0.03
12:00:02 ص;15.65;-11.86;1.02;-8.54;0.57;0.02
12:00:02 ص;3.8;-13.06;12.21;1.09;3.17;0
12:00:02 ص;-6.22;-4.93;3.46;8.73;0.59;0.01
12:00:02 ص;1.74;3.81;3.63;2.17;-0.23;0.02
12:00:02 ص;7.4;0.52;-4.68;-3.79;-0.97;0.03
12:00:02 ص;12.79;-14.19;3.47;-8.73;2.41;0.02
12:00:02 ص;3.37;-14.19;13.96;8.17;4.44;0
12:00:02 ص;-5.97;-0.2;5.43;7.35;-1.65;0.02
12:00:02 ص;2.09;4.46;-1.48;0.41;-0.27;0.03
12:00:02 ص;10.73;-5.02;-5.83;-7.22;-0.13;0.03
12:00:03 ص;7.67;-16.69;5.65;-5.81;8.73;0.01
12:00:03 ص;0.58;-13.6;9.55;8.73;2.34;0
12:00:03 ص;-1.56;3.18;0.59;3.9;-1.53;0.02
12:00:03 ص;6.4;0.98;-4.2;-2.19;-1.7;0.03
12:00:03 ص;15.25;-13.11;2.29;-8.73;1.7;0.02
12:00:03 ص;3.83;-13.24;12.09;3.56;5.05;0
12:00:03 ص;-5.63;-2.35;4.63;7.15;-0.46;0.01
12:00:03 ص;1.49;2.57;-2.21;1.22;-1.49;0.03
12:00:03 ص;11.23;-6.74;-2.97;-5.54;0.12;0.03
12:00:04 ص;3.97;-12.39;6.18;-2.88;6.63;0.01
12:00:04 ص;-3.95;-9.38;5.37;8.73;3.55;0
12:00:04 ص;1.48;3.46;-0.52;3.74;-1.38;0.02
12:00:04 ص;8.45;-0.83;-1.6;-2.35;-1.47;0.03
12:00:04 ص;13.49;-11.49;3.63;-8.73;3.14;0.02
12:00:04 ص;0.98;-12.31;10.47;8.73;3.33;0
12:00:04 ص;-2.95;1.41;6.54;4.95;-1.25;0.01
12:00:04 ص;4.07;3.46;-3.31;-1.61;-1.88;0.03
12:00:04 ص;9.65;-8.11;-1.44;-6.7;1.56;0.03
12:00:04 ص;1.74;-11.39;7.26;-1.38;6.87;0.01
12:00:05 ص;-2.72;-8.99;5.83;8.73;2.63;0
12:00:05 ص;2.07;3.67;-3.7;3.04;-2.06;0.03
12:00:05 ص;10.24;-0.94;-1.76;-1.94;-1.38;0.03
12:00:05 ص;14.59;-10.57;1.52;-8.35;5.19;0.01
12:00:05 ص;2.04;-10.88;14.41;5.35;1.94;0
12:00:05 ص;-4.31;1.88;3.52;5.63;0.47;0.01
12:00:05 ص;2.89;4.23;-1.74;-0.78;-2.65;0.03
12:00:05 ص;12.28;-6.11;-0.45;-3.81;0.26;0.03
12:00:05 ص;8.01;-9.87;3.8;-2.47;8.39;0
12:00:06 ص;-1.83;-9.88;14.99;5.02;0.97;0
12:00:06 ص;-2.92;0.84;0.84;7.69;-0.61;0.02
12:00:06 ص;4.87;5.13;-5.19;1.14;-0.38;0.03
12:00:06 ص;11.18;-5.14;-6.35;-7.42;1.64;0.03
12:00:06 ص;12.15;-19.59;24.35;-1.95;5.86;0.01
12:00:06 ص;-8;-1.74;3.52;6.12;0.11;0
12:00:06 ص;0.07;4.89;1.95;1.53;-1.52;0.02
12:00:06 ص;8.75;-0.28;-6.44;-2.81;-1.39;0.03
12:00:06 ص;8.44;-13.5;4.3;-7.47;4.67;0.02
12:00:06 ص;0.52;-13.91;14.47;8.73;3.85;0
12:00:07 ص;-4.64;1.22;4.64;4.5;-2.14;0.02
12:00:07 ص;4.37;2.09;-1.73;-0.75;-2.63;0.03
12:00:07 ص;13.09;-5.08;-3.78;-3.54;1.93;0.02
12:00:07 ص;8.43;-14.36;15.78;-3.22;5.43;0
12:00:07 ص;-4.44;-3.36;3.19;6.96;1.19;0
12:00:07 ص;1.34;5.73;-3.23;2.49;-0.03;0.02
12:00:07 ص;10.01;-0.02;-5.4;-2.73;-1.54;0.03
12:00:07 ص;13.42;-12.61;7.37;-7.05;1.81;0.02
12:00:07 ص;3.81;-8.91;13.51;5.27;2.97;0
12:00:08 ص;-2.54;2.74;-0.55;5.65;-0.53;0.01
12:00:08 ص;4.12;4.51;-5.5;-0.43;-1.15;0.03
12:00:08 ص;11.15;-8.29;-4.75;-7.5;2.3;0.03
12:00:08 ص;7.12;-14.87;10.08;-2.52;8.14;0.01
12:00:08 ص;-2.88;-9.21;8.35;8.73;1.01;0
12:00:08 ص;-1.02;6.44;-3.44;3.35;-0.34;0.02
12:00:08 ص;12.46;-3.75;-9.36;1.05;-0.62;0.05
12:00:08 ص;13.43;-18.84;6.25;-8.73;1.54;0.02
12:00:08 ص;3.73;-13.09;1.38;7.42;3.05;-0.03
12:00:09 ص;0.68;3.46;5.79;5.55;-2.53;0.02
12:00:09 ص;-8.48;-1.22;0.06;2.37;4.67;0.04
12:00:09 ص;6.73;-11.16;4.4;-7.55;2.09;0.02
12:00:09 ص;7.28;-7.2;5.09;-2.25;1.91;0
12:00:09 ص;8.85;-5.2;18.98;-0.08;-3.96;0
12:00:09 ص;7.67;3.98;2.16;1.51;-5.32;0.02
12:00:09 ص;9.85;2.13;-4.88;4.93;-0.48;0.01
12:00:09 ص;8.29;3.15;-8.68;-0.36;-2.94;0.02
12:00:09 ص;9.6;1.04;-2.01;-2.27;-2.9;0.01
12:00:09 ص;6.6;2.08;-4.97;0.59;-3.28;0.02
12:00:10 ص;1.18;-1.11;-8.88;3.38;4.33;0.02
12:00:10 ص;9.27;0.62;-16.07;0.21;-0.23;0.03
12:00:10 ص;6.05;-10.01;-14.01;-5.6;2.04;0.03
12:00:10 ص;13.37;-6.94;-1.36;-1.4;2.77;0.01
12:00:10 ص;0.79;-3.59;3.03;6.8;3.02;0
12:00:10 ص;1;2.36;-9.21;1.94;3.29;0.02
12:00:10 ص;10.74;-10.37;-7.94;-6.51;4.51;0.02
12:00:10 ص;15.58;-13.48;13.75;1.57;4.64;0.01
12:00:10 ص;-7.62;0.09;0.82;7.24;3.33;0
12:00:11 ص;2.06;2.27;1.21;1.04;1.7;0.03
12:00:11 ص;9.49;-4.01;-1.21;-5.57;2.92;0.02
12:00:11 ص;11.03;-14.86;7.79;-4.06;5.13;0
12:00:11 ص;-9.85;-8.7;14.62;7.52;-0.43;0
12:00:11 ص;-1.85;-0.11;3.66;6.91;0.5;0.02
12:00:11 ص;-1.04;3.04;-0.8;-0.09;1.22;0.03
12:00:11 ص;7.86;-5.39;-0.33;-6.79;3.57;0.02
12:00:11 ص;7.81;-15.07;13.4;-5.21;7.23;0
12:00:11 ص;-11.35;-9.88;10.99;8.73;-0.89;0
12:00:11 ص;-1.19;4.96;-1.47;2.45;1.21;0.01
12:00:12 ص;6;0.6;0.55;-1.77;0.06;0.03
12:00:12 ص;7.6;-7.54;3.18;-7.14;3.17;0.01
12:00:12 ص;-0.87;-11.27;12.53;-1.91;3.88;0
12:00:12 ص;-10.14;-7.59;16.81;7.87;-1.02;0.01
12:00:12 ص;-4.87;2.04;0.97;2.39;2.56;0.02
12:00:12 ص;6.72;-4.16;-6.49;-5.81;0.51;0.03
12:00:12 ص;4.23;-23.1;11.29;-8.73;7.57;0
12:00:12 ص;-7.4;-11.42;5.39;8.73;0.22;0.01
12:00:12 ص;-3.35;-1.26;-1.72;4.29;0.75;0.03
12:00:13 ص;7.63;-5.31;0.54;-4.98;-0.81;0.03
12:00:13 ص;2.79;-18.04;10.59;-7.18;5.99;0
12:00:13 ص;-11.59;-16.08;8.19;8.73;0.63;0.01
12:00:13 ص;-0.69;1.7;-4.75;1.21;0.65;0.03
12:00:13 ص;4.94;-6.21;-0.29;-6.7;-0.59;0.02
12:00:13 ص;7.71;-20.81;13.27;-7.01;6.78;0
12:00:13 ص;-17.26;-5.18;10.26;6.55;-2.16;0.01
12:00:13 ص;-4.28;2.54;-5.62;1.36;1.31;0.02
12:00:13 ص;4.97;-7.26;0.52;-6.91;-1.16;0.03
12:00:13 ص;4.89;-18.4;10.15;-4.1;6.94;0
12:00:14 ص;-7.35;-12.12;11.11;7.3;-1.89;0.01
12:00:14 ص;-4.43;-1.95;-3.22;4.08;-0.53;0.03
12:00:14 ص;3.29;-5.92;-2.11;-7.44;0.69;0.02
12:00:14 ص;3.08;-18.6;12.22;-4.72;5.37;0
12:00:14 ص;-7.82;-10.06;5.54;8.73;-1.07;0.01
12:00:14 ص;-1.75;-1.76;0.94;1.29;0.51;0.03
12:00:14 ص;6.13;-9.77;-2.67;-8.73;-0.07;0.02
12:00:14 ص;-2.21;-20.38;11.34;1.69;5.89;0
12:00:14 ص;-6.3;-8.81;5.7;8.73;-1.09;0.01
12:00:15 ص;-5.9;-0.56;-0.38;0.04;0.94;0.03
12:00:15 ص;8.47;-4.06;1.93;-4.7;-0.17;0.02
12:00:15 ص;3.57;-16.2;8.85;-4.95;7.11;-0.01
12:00:15 ص;-6.23;-10.94;6.94;8.73;-1.41;0.01
12:00:15 ص;-5.15;0.36;0.87;2.84;1;0.02
12:00:15 ص;5.22;-1.14;0.23;-2.33;-1;0.03
12:00:15 ص;3.45;-13.32;6.62;-7.87;3.76;0.01
12:00:15 ص;-16.16;-17.71;20.56;8.73;2.43;0
12:00:15 ص;-8.5;-2.4;0.88;5.83;-0.58;0.03
12:00:15 ص;0.72;-0.37;-1.24;-2.81;-1.62;0.03
12:00:16 ص;6.92;-14.81;2.43;-8.73;4.42;0.01
12:00:16 ص;-8.88;-16.8;15.68;7.21;-0.59;0
12:00:16 ص;-6.62;-6.27;3.37;8.18;0.04;0.02
12:00:16 ص;-1.71;-0.06;0.26;-2.48;1.14;0.02
12:00:16 ص;10.78;-12.73;1.81;-8.73;2.89;0.01
12:00:16 ص;-2.46;-16.38;9.79;0.29;1.89;0
12:00:16 ص;-10.68;-11.19;-1.14;8.73;-0.72;0.02
12:00:16 ص;-0.87;0.76;-2.06;-1.72;1.54;0.02
12:00:16 ص;3.48;-12.26;2.54;-8.73;2.77;0.01
12:00:17 ص;-0.47;-16.8;6.73;-0.4;3.57;0
12:00:17 ص;-9.04;-12.75;8.92;8.73;-1.36;0.01
12:00:17 ص;3.12;-2.15;-2.06;0.15;0.45;0.03
12:00:17 ص;5.57;-12.66;3.08;-8.73;3.48;0
12:00:17 ص;-8.53;-14.72;9.31;8.73;-0.22;0.01
12:00:17 ص;-4.67;-0.52;-0.24;2.42;-0.68;0.02
12:00:17 ص;6.16;-4.89;-0.46;-6.21;0;0.03
12:00:17 ص;3.38;-16.88;5.97;-5.43;6.4;0
12:00:17 ص;-5.73;-15.77;11.32;8.63;0.07;0.01
12:00:17 ص;-7.86;-3.22;3.44;6.58;-0.22;0.02
12:00:18 ص;-0.9;-1.32;2.14;-0.03;-0.05;0.03
12:00:18 ص;5.56;-13.33;1.32;-8.73;2.91;0.01
12:00:18 ص;-5.34;-19.46;11.85;3.12;4.97;0
12:00:18 ص;-5.58;-5.54;3.51;7.97;-0.79;0.02
12:00:18 ص;-0.06;-0.09;-0.43;-1.02;0.51;0.03
12:00:18 ص;7.55;-14.09;-0.49;-8.73;0.36;0.02
12:00:18 ص;-3.88;-18.12;8.45;2.16;4.94;0
12:00:18 ص;-9.25;-8.01;3.96;8.3;-0.1;0.02
12:00:18 ص;1.69;-2.2;1.7;0.71;0.21;0.03
12:00:19 ص;3.64;-6.94;2.56;-6.62;1.54;0.01
12:00:19 ص;-6.9;-18.14;14.65;-1.45;5.33;-0.01
12:00:19 ص;-6.67;-8.61;9.46;8.73;-0.56;0.01
12:00:19 ص;-1.54;0.68;-1.38;-0.81;1.65;0.03
12:00:19 ص;3.42;-8.99;0.62;-8.73;1.62;0.02
12:00:19 ص;-0.63;-17.63;11.51;0.01;3.91;0
12:00:19 ص;-9.92;-5.77;5.04;6.95;-0.13;0.01
12:00:19 ص;-1.25;-2.13;5.65;1.73;0.09;0.03
12:00:19 ص;4.22;-3.38;-0.06;-4.61;-1.86;0.02
12:00:19 ص;4.92;-15.84;5.39;-7.14;4.84;0
12:00:20 ص;-10.59;-10.29;13.66;8.73;1.31;0.01
12:00:20 ص;-0.59;-1.43;0.3;0.85;0.6;0.03
12:00:20 ص;9.44;-10.17;-2.15;-8.73;-0.14;0.02
12:00:20 ص;-1.59;-20.48;14.63;1.05;6.05;-0.01
12:00:20 ص;-11.74;-5.05;0.86;8.73;-0.69;0.02
12:00:20 ص;5.06;-2.19;-3.03;-2.82;1.24;0.03
12:00:20 ص;12.18;-21.57;7.52;-8.73;6.76;0
12:00:20 ص;-5.55;-9.33;5.61;8.73;-0.51;0.01
12:00:20 ص;4.48;-2.3;-2.38;-1.03;0.03;0.03
12:00:21 ص;8.07;-16;3.04;-8.73;2.9;0.01
12:00:21 ص;-3.69;-15.83;8.38;3.94;1.36;0
12:00:21 ص;-10.52;-8.8;5.65;8.73;-0.16;0.02
12:00:21 ص;4.57;-1.86;0.14;-1.82;0.59;0.03
12:00:21 ص;9.57;-14.92;4.9;-8.73;2.02;0.01
12:00:21 ص;-6.89;-16.38;16.85;4.26;2.59;0
12:00:21 ص;-7.85;-2;1.47;4.78;-0.24;0.02
12:00:21 ص;5.34;-3.39;3.69;0.58;-2.2;0.03
12:00:21 ص;6.6;-9.95;-2;-8.73;1.72;0.01
12:00:22 ص;-0.79;-16.67;7.4;-1.42;4.17;0
12:00:22 ص;-6.98;-8.79;4.54;8.01;0.68;0.01
12:00:22 ص;-0.85;-1.32;-0.18;3.84;-0.84;0.03
12:00:22 ص;6.44;-4.37;0.4;-3.51;0.22;0.03
12:00:22 ص;5.77;-19.39;5.31;-8.73;5.16;0
12:00:22 ص;-3.85;-14.27;7.14;5.59;0.55;0
12:00:22 ص;-5.2;-5.94;4.92;7.46;-1.01;0.02
12:00:22 ص;3.96;-1.05;2.01;-0.29;1.79;0.02
12:00:22 ص;2.98;-10.54;0.25;-8.73;1.15;0.01
12:00:22 ص;-4.36;-18.84;10.22;-1.05;3.09;-0.01
12:00:23 ص;-3.48;-10.33;5.74;8.73;0.37;0.01
12:00:23 ص;0.44;-1.94;2.74;2;1.22;0.03
12:00:23 ص;3.05;-3.76;-1.46;-5.12;1.87;0.02
12:00:23 ص;8.13;-20.02;5.89;-7.2;4.3;0
12:00:23 ص;-5.46;-11.55;5.88;8.73;1.06;0
12:00:23 ص;-0.64;-5.93;6.19;7.16;-0.16;0.02
12:00:23 ص;1.69;-1.49;4.73;1.36;1.97;0.02
12:00:23 ص;3.67;-7.62;3.03;-8.13;0.84;0.01
12:00:23 ص;-2.04;-14.54;8.44;-3.2;5.04;0
12:00:24 ص;-6.92;-11.46;5.89;8.73;1.45;0.01
12:00:24 ص;-0.73;1.41;-4.49;4.88;0.89;0.03
12:00:24 ص;9.87;-3.36;1.26;-2.25;-0.95;0.03
12:00:24 ص;4.37;-11.78;7.21;-8.53;3.85;0
12:00:24 ص;-3.16;-12.54;16;4.2;3.86;0
12:00:24 ص;-4.26;0.53;-0.74;8.73;-1.49;0.02
12:00:24 ص;-6.57;1.11;-1.69;-0.71;0.48;0.04
12:00:24 ص;7.93;-10.33;1.24;-8.73;3.72;0.02
12:00:24 ص;4.16;-16.9;10.22;-1.3;6.28;0.01
12:00:24 ص;-12.32;-12.03;9.41;8.73;2.37;0
12:00:25 ص;-3.48;2.52;-0.32;3.86;-0.15;0.03
12:00:25 ص;11.58;-3.52;-2.02;-4.8;-0.69;0.03
12:00:25 ص;6.31;-14.99;7.36;-8.67;4.32;0.01
12:00:25 ص;-7.38;-15.89;14.54;8.73;3.64;0
12:00:25 ص;-8.67;2.2;3;4.49;-0.38;0.02
12:00:25 ص;3.18;-0.22;-2.82;-4.27;0.83;0.03
12:00:25 ص;5.19;-13.46;6.66;-8.53;4.2;0.01
12:00:25 ص;0.05;-14.88;15.85;1.76;2.82;0
12:00:25 ص;-11.2;-9.97;6.71;8.73;-0.68;0.01
12:00:26 ص;-1.93;1.32;0.87;0.37;0.16;0.03
12:00:26 ص;8.73;-7.01;-1.5;-7.64;0.94;0.02
12:00:26 ص;4.55;-16.98;10.29;-3.39;5.76;0.01
12:00:26 ص;-7.53;-12.73;10.07;8.73;0.48;0.01
12:00:26 ص;-3.71;0.88;2.12;3.97;-1.03;0.03
12:00:26 ص;11.55;-1.3;-3.96;-3.1;-1.11;0.03
12:00:26 ص;2.62;-15.05;9.18;-7.08;7.26;0
12:00:26 ص;-3.97;-7.35;9.1;6.58;-1.52;0
12:00:26 ص;-5.92;0.63;2.46;3.45;0.59;0.02
12:00:26 ص;5.72;-1.85;-1.32;-1.24;-1.51;0.03
12:00:27 ص;4.96;-13.21;5.84;-8.15;4.88;0.01
12:00:27 ص;-6.71;-17.25;22.78;4.98;2.9;0
12:00:27 ص;-9.79;-0.95;-3.03;7.36;-0.35;0.02
12:00:27 ص;-0.18;-0.19;-0.26;-0.83;0.68;0.03
12:00:27 ص;10.26;-12.45;4.19;-8.73;2.61;0.02
12:00:27 ص;-0.5;-16.46;11.97;1.87;5.52;-0.01
12:00:27 ص;-10.1;-6.48;4.24;8.73;-1.25;0.02
12:00:27 ص;-3.62;-0.27;2.69;-0.17;0.33;0.03
12:00:27 ص;9.49;-5.91;2.52;-6.11;2.19;0.02
12:00:28 ص;0.89;-13;9.64;-3.65;4.44;0
12:00:28 ص;-9;-12.1;12.72;8.51;0.67;0
12:00:28 ص;-5.05;0.16;2.85;4.25;-0.44;0.03
12:00:28 ص;5.61;-0.31;2.38;-1.5;-0.25;0.03
12:00:28 ص;6.61;-9.05;5.43;-7.38;2.74;0.01
12:00:28 ص;-4.98;-13.16;13.06;0.04;4.5;-0.01
12:00:28 ص;-6.54;-5.32;3.27;8.73;-0.4;0.02
12:00:28 ص;-2.73;0.74;1.63;-0.09;-0.57;0.03
12:00:28 ص;9.21;-8.27;1.52;-8.73;0.56;0.02
12:00:28 ص;4.14;-16.12;6.47;-1.88;7.12;0
12:00:29 ص;-6.68;-12.34;10.12;8.73;-0.1;0.01
12:00:29 ص;-4.53;1.15;2.3;4.45;0.57;0.02
12:00:29 ص;5.22;-1.73;-0.38;-3.58;-0.29;0.03
12:00:29 ص;8.86;-19.52;6.6;-8.73;4.66;0.01
12:00:29 ص;-6.75;-15.3;9.11;8.73;1.78;0
12:00:29 ص;-4.14;1.19;-1;4.65;-0.21;0.03
12:00:29 ص;3.36;-2.95;2.74;-3.85;0.09;0.03
12:00:29 ص;5.36;-14.22;7.49;-7.93;4.02;0.01
12:00:29 ص;-8.81;-17.95;14.43;6.09;4.89;-0.01
12:00:30 ص;-6.4;-3.87;2.81;8.13;-2.13;0.03
12:00:30 ص;-0.35;0.97;1.28;0.32;2.19;0.03
12:00:30 ص;7.57;-11.28;1.39;-8.73;2.06;0.02
12:00:30 ص;0.16;-19.99;13.65;1.21;6.07;-0.01
12:00:30 ص;-11.48;-6.51;4.05;8.73;0.21;0.02
12:00:30 ص;0.08;1.44;1.16;0.56;1.78;0.03
12:00:30 ص;6.1;-12.73;1.82;-8.73;1.02;0.02
12:00:30 ص;0.71;-15.68;7.35;0.22;4.94;0
12:00:30 ص;-6.85;-9.34;4.13;8.73;0.19;0.02
12:00:30 ص;5.5;-1.57;2.49;1.2;0.48;0.03
12:00:31 ص;6.47;-10.72;1.25;-8.73;0.89;0.01
12:00:31 ص;-1.32;-18.24;11.03;1.31;3.8;0
12:00:31 ص;-6.44;-5.68;-0.05;8.73;-1.19;0.02
12:00:31 ص;-0.39;0.9;-1.81;1.18;0.53;0.03
12:00:31 ص;6.72;-11.39;3.53;-8.73;2.16;0.02
12:00:31 ص;1.81;-16.18;9.19;0.26;5.33;0
12:00:31 ص;-9.1;-8.67;5.76;8.36;0.41;0.01
12:00:31 ص;-2.08;1.13;-1.71;3.14;0.36;0.03
12:00:31 ص;8.3;-4.13;0.48;-5.58;1.07;0.02
12:00:32 ص;5.46;-18.09;9.68;-7.54;4.85;0
12:00:32 ص;-5.74;-12.15;6.34;8.73;0.66;0.01
12:00:32 ص;-1.41;1.2;1.29;3.66;-0.11;0.03
12:00:32 ص;6.42;-2.29;-0.61;-4.53;1.13;0.02
12:00:32 ص;5.91;-19.75;7.33;-8.73;4.42;0
12:00:32 ص;-4.72;-16.63;9.38;8.73;1.07;0
12:00:32 ص;-2.14;-2.93;1.57;2.74;-1.8;0.03
12:00:32 ص;5.75;-3.78;0.53;-3.24;1.2;0.02
12:00:32 ص;9.96;-18.59;8.31;-8.73;3.91;0
12:00:33 ص;-8.15;-17.06;13.54;8.33;0.49;0
12:00:33 ص;-2.59;-2.27;-0.72;5.22;0.22;0.03
12:00:33 ص;5.69;-3.16;0.04;-3.85;1.25;0.02
12:00:33 ص;9.17;-18.52;10.1;-8.22;3.74;0
12:00:33 ص;-10.1;-16.18;3.89;8.73;1.88;0
12:00:33 ص;-1.81;1.51;0.56;2.39;-0.12;0.03
12:00:33 ص;6.75;-3.65;-2.17;-5.96;1.38;0.02
12:00:33 ص;10.17;-20.81;15.53;-7.38;5.02;0
12:00:33 ص;-10.71;-14.79;4.5;8.73;0.33;0.01
12:00:33 ص;-1.14;2.21;-1.07;1.46;0.81;0.03
12:00:34 ص;4.16;-6.43;0.74;-7.37;1.63;0.02
12:00:34 ص;6.91;-19.14;13.33;-5.77;5.89;0
12:00:34 ص;-8.83;-14.74;8.71;8.73;0.99;0
12:00:34 ص;-0.64;0.79;-1.36;1.43;-1.07;0.03
12:00:34 ص;4.98;-6.62;1.41;-5.25;1.97;0.02
12:00:34 ص;2.48;-20.18;11.4;-6.69;5.92;-0.01
12:00:34 ص;-6.82;-11.98;2.92;8.73;0.97;0.01
12:00:34 ص;2.16;0.76;-0.84;-0.57;0.63;0.03
12:00:34 ص;7.44;-10.79;4.93;-7.74;0.79;0.02
12:00:35 ص;0.15;-19.22;15.47;-1.18;4.02;-0.01
12:00:35 ص;-9.58;-7.05;1.47;8.73;-0.15;0.02
12:00:35 ص;3.35;0.59;-0.28;-0.97;1.87;0.03
12:00:35 ص;10.39;-13.79;5.65;-8.73;1.3;0.01
12:00:35 ص;-4.47;-18.56;15.23;4.21;3.07;-0.01
12:00:35 ص;-7.21;-3.02;1.02;8.72;-0.32;0.02
12:00:35 ص;5.99;0.18;-0.4;-0.8;0.41;0.03
12:00:35 ص;6.09;-13.66;5.85;-8.73;1.95;0.01
12:00:35 ص;-6.21;-24.16;23.61;6.89;2.93;-0.01
12:00:35 ص;-6.67;-0.03;-3.28;5.23;-0.52;0.03
12:00:36 ص;4.02;-3.4;0.22;-4.06;1.58;0.03
12:00:36 ص;6.5;-17.34;10.07;-8.54;2.69;0.01
12:00:36 ص;-3.93;-15.04;11.23;6.07;2.1;-0.01
12:00:36 ص;-8.38;-1.92;1.8;6.51;-0.48;0.03
12:00:36 ص;7.74;-2.62;-0.54;-1.71;3.03;0.03
12:00:36 ص;6.32;-16.3;7.76;-8.73;4.88;0
12:00:36 ص;-6.51;-13.32;10.34;7.85;1.1;0
12:00:36 ص;-3.81;-1.12;-1.04;5.97;-0.55;0.02
12:00:36 ص;6.44;-2.01;-0.75;-2.25;0.37;0.03
12:00:37 ص;9.36;-16.85;8.13;-8.73;3.97;0
12:00:37 ص;-6.81;-19.45;16.51;8.73;1.47;0
12:00:37 ص;-2.13;1.3;-5.99;4.66;-0.3;0.03
12:00:37 ص;3.28;-4.15;-2.81;-4.94;1.5;0.03
12:00:37 ص;8.4;-20.99;11.6;-8.71;5.75;0.01
12:00:37 ص;-10.07;-17.64;14.75;7.71;2.21;0
12:00:37 ص;-0.47;-0.88;-6.18;7.01;-0.97;0.03
12:00:37 ص;4.23;1.32;-1.96;-1.44;1.33;0.02
12:00:37 ص;7.62;-14.64;6.84;-8.73;2.64;0.01
12:00:37 ص;-14.23;-18.32;16.3;8.47;3.13;0
12:00:38 ص;-8.2;-6.81;5.45;8.73;-0.91;0.02
12:00:38 ص;1.62;1.84;-0.97;-0.39;-0.12;0.03
12:00:38 ص;9.28;-7.58;-0.13;-8.66;3.47;0.02
12:00:38 ص;2.52;-15.88;9.9;-3.83;7.44;0
12:00:38 ص;-4.66;-12.8;7.01;8.73;0.44;0.01
12:00:38 ص;-3.62;2.66;-3.5;4.38;-0.14;0.03
12:00:38 ص;7.11;-0.28;-1.82;-3.45;0.64;0.03
12:00:38 ص;8.16;-17.2;7.98;-8.73;4.7;0.01
12:00:38 ص;-11.75;-17.38;10.49;8.73;1.7;0.01
12:00:39 ص;-6.81;2.39;-0.01;4.28;0.39;0.02
12:00:39 ص;6;-1.91;-3.08;-4.26;-0.52;0.03
12:00:39 ص;5.88;-17.03;8.25;-8.73;5.43;0.01
12:00:39 ص;-13.07;-18.25;16.65;8.73;3.32;0
12:00:39 ص;-3.04;1;-5.39;4.22;-0.73;0.03
12:00:39 ص;6.3;-1.71;-0.78;-1.88;-1.65;0.03
12:00:39 ص;5.14;-12.46;6.52;-8.4;5.39;0.01
12:00:39 ص;-10.92;-17.36;21.18;3.98;4.2;-0.01
12:00:39 ص;-5.44;-3.21;-10.39;8.73;-1.48;0.03
12:00:39 ص;0.5;1.97;-1.32;0.15;-0.7;0.03
12:00:40 ص;7.95;-7.83;0.81;-8.43;3.49;0.02
12:00:40 ص;2.2;-17.87;13.64;-3.46;8.73;-0.01
12:00:40 ص;-11.36;-7.39;7.58;8.52;-0.24;0.01
12:00:40 ص;-2.06;2.06;-2.62;2.13;-0.79;0.03
12:00:40 ص;11.08;-4.42;1.53;-5.68;1.11;0.02
12:00:40 ص;4.37;-13.7;9.67;-5.73;5.04;0
12:00:40 ص;-7.14;-12.2;13.7;8.73;0.17;0
12:00:40 ص;-6.76;0;1.46;5.64;-0.59;0.03
12:00:40 ص;6.45;-1.12;0.02;-3.47;-0.81;0.03
12:00:41 ص;6.97;-11.41;6.09;-8.26;4.79;0.01
12:00:41 ص;-8.86;-16.55;22.47;3.07;3.07;-0.01
12:00:41 ص;-6.63;-0.58;-5.07;7.4;-1.08;0.02
12:00:41 ص;3.49;0.64;-1.43;-0.75;-1.2;0.03
12:00:41 ص;7.33;-11.83;4.71;-8.73;4.25;0.01
12:00:41 ص;-7.29;-19.08;20.03;2.65;4.82;-0.01
12:00:41 ص;-11.71;-6.99;2.37;8.73;-0.59;0.02
12:00:41 ص;-1.08;2.82;-0.21;0.84;1.47;0.03
12:00:41 ص;10.54;-7.56;-0.37;-8.66;2.1;0.02
12:00:41 ص;-0.96;-18.4;13.11;-2.52;8.09;-0.01
12:00:42 ص;-6.82;-12.08;10.98;8.29;-0.69;0.01
12:00:42 ص;-4.84;2.56;-4.31;3.81;-0.17;0.02
12:00:42 ص;10.94;-5.47;-1.41;-5.08;0.38;0.03
12:00:42 ص;3.9;-17.6;10.15;-6.96;6.68;0
12:00:42 ص;-9.79;-18.3;12.39;8.73;1.3;0.01
12:00:42 ص;-6.11;3.17;-0.22;4.23;0.14;0.02
12:00:42 ص;6.11;0.81;-2.18;-2.27;0.39;0.03
12:00:42 ص;6.32;-15.17;6.45;-8.73;3.77;0.01
12:00:42 ص;-7.01;-15.07;13.3;8.73;4.47;-0.01
12:00:43 ص;-7.33;-1.82;0.64;7.96;-0.97;0.02
12:00:43 ص;-1.44;1.04;-0.21;-0.87;-0.83;0.03
12:00:43 ص;8.78;-9.24;1.9;-8.73;4.42;0.01
12:00:43 ص;-2.43;-16.52;12.82;-3.04;5.17;0
12:00:43 ص;-8.67;-10.44;2.62;8.73;1.57;0.01
12:00:43 ص;-1.6;2.78;-5.03;1.63;-3.61;0.03
12:00:43 ص;10.57;-6.41;1.83;-5.69;-1.87;0.03
12:00:43 ص;7.94;-9.59;5.71;-2.77;6.63;0.01
12:00:43 ص;-9.76;-9.84;14.12;6.59;2.98;0
12:00:44 ص;-7.8;-0.66;2.7;6.11;-0.85;0.03
12:00:44 ص;4.66;-0.94;0.69;-0.75;-1.37;0.03
12:00:44 ص;6.34;-8.08;2.18;-8.12;4.52;0.01
12:00:44 ص;-2.22;-15.6;16.24;-0.94;4.62;0
12:00:44 ص;-8.03;-7.54;4.42;8.73;0.67;0.01
12:00:44 ص;-5.63;1.13;-0.11;1.61;-0.35;0.03
12:00:44 ص;9.86;-5.97;-0.29;-7.82;2.96;0.02
12:00:44 ص;6.27;-15.94;10.83;-4.68;4.87;0.01
12:00:44 ص;-11.36;-12.81;9.46;8.73;1.87;0
12:00:44 ص;-7.13;2.46;2.1;3.03;0.44;0.03
12:00:45 ص;10.72;-2.88;-1.13;-4.85;-1.39;0.03
12:00:45 ص;7.57;-14.18;8.33;-8.17;4.51;0.01
12:00:45 ص;-12.81;-14.6;17.53;8.39;2.75;0
12:00:45 ص;-3.76;1.75;-2.15;4;-0.37;0.02
12:00:45 ص;2.13;-0.56;-0.97;-2.43;-0.43;0.03
12:00:45 ص;4.75;-11.15;7.25;-7.76;5.32;0.01
12:00:45 ص;0.52;-14.79;18.58;8.24;5.11;-0.01
12:00:45 ص;-6.16;-2.02;3.29;5.89;-1.93;0.02
12:00:45 ص;-2.36;1.53;1.25;-0.65;-0.74;0.03
12:00:46 ص;9.28;-11.25;-0.56;-8.73;0.12;0.02
12:00:46 ص;-1.89;-17.66;10.44;-0.49;6.31;0
12:00:46 ص;-5.1;-9.84;4.55;8.73;0.86;0.01
12:00:46 ص;-4.69;1.6;1.47;2.57;-0.28;0.03
12:00:46 ص;6.08;1.24;2.44;-1.47;-0.39;0.02
12:00:46 ص;3.73;-8.24;4.99;-7.3;2.52;0.01
12:00:46 ص;-1.52;-14.55;9.89;-2.52;4.9;0
12:00:46 ص;-6.3;-10.59;4.05;8.73;0.21;0.02
12:00:46 ص;-2.6;1.89;-0.1;0.81;-2.14;0.03
12:00:46 ص;8.78;-5.07;1.5;-5.74;1.41;0.02
12:00:47 ص;4.5;-14.49;8.54;-3.75;5.48;0
12:00:47 ص;-13.63;-11.58;4.87;8.73;1.73;0
12:00:47 ص;-4.16;2.9;-1.1;3.13;0.75;0.03
12:00:47 ص;10.43;-1.81;0.91;-3.7;-1.2;0.03
12:00:47 ص;5.94;-12.45;7.76;-8.6;5.13;0
12:00:47 ص;-10.53;-16.12;20.54;8.73;3.57;0
12:00:47 ص;-3.56;3.65;-3.56;3.51;-0.4;0.02
12:00:47 ص;4.45;-3.34;0.59;-3.93;-1.76;0.04
12:00:47 ص;5;-12.76;7.62;-7.55;5.46;0.01
12:00:48 ص;-6.53;-15.28;20.74;8.65;3.02;-0.01
12:00:48 ص;-4.14;2.59;2.69;3.68;-0.88;0.02
12:00:48 ص;0.34;0.05;-3.82;-3.38;-1.43;0.03
12:00:48 ص;7.82;-13.22;6.9;-8.73;4.92;0.01
12:00:48 ص;-0.59;-16.11;16.26;5.49;4.17;0
12:00:48 ص;-9.05;-4.39;4.03;7.66;-0.53;0.02
12:00:48 ص;-2.5;0.22;3.4;-0.18;-1.38;0.03
12:00:48 ص;10.25;-4.57;-1.31;-6.92;1.45;0.02
12:00:48 ص;5.32;-16.39;12.74;-3.51;4.31;0
12:00:48 ص;-7.81;-9.48;14.7;8.73;-1.07;0.01
12:00:49 ص;-1.84;3.57;-4.23;-2.24;1.21;0.02
12:00:49 ص;9.29;-5.55;1.3;-5.66;-0.08;0.02
12:00:49 ص;0.24;-14.5;13.58;-2.36;3.99;0
12:00:49 ص;-4.95;-14.31;22.06;8.73;0.69;0.01
12:00:49 ص;0.46;1.86;-2.27;2.02;-0.09;0.03
12:00:49 ص;11.65;-1.92;-1.82;-4.36;-0.72;0.03
12:00:49 ص;9.79;-13.2;7.66;-5.84;3.9;0
12:00:49 ص;-20.17;-4.72;9.98;3.07;2.06;-0.01
12:00:49 ص;-1.77;1.92;-1.25;5.35;0.99;0.02
12:00:50 ص;6.93;-4.88;-4.27;-2.34;-0.55;0.04
12:00:50 ص;3.06;-12.44;7.61;-8.73;3.51;0.01
12:00:50 ص;4.61;-17.44;18.78;8.14;4.37;-0.01
12:00:50 ص;-13.93;3.46;0.83;5.75;-2.73;0.03
12:00:50 ص;4.63;-2.73;-0.06;-1.84;-0.65;0.04
12:00:50 ص;9.69;-12.59;6.36;-8.67;2.83;0.02
12:00:50 ص;2.97;-13.99;9.97;7.08;3.97;-0.03
12:00:50 ص;1.33;1.06;7.1;4.11;0.68;0.01
12:00:50 ص;-13.49;-1.92;8.01;-0.28;3.96;0.04
12:00:50 ص;9.13;-1.83;-6.34;-2.58;4.83;0.01
12:00:51 ص;8.84;-8.22;14.2;-4.01;0.98;0.01
12:00:51 ص;-2.44;-7.36;12;2.13;3.48;-0.02
12:00:51 ص;2.75;1.4;1.77;4.92;-0.13;0.01
12:00:51 ص;-2.45;2.55;4.98;-1.05;0.49;0.02
12:00:51 ص;14.86;-1.91;3.6;1.15;-3.67;0.03
12:00:51 ص;10.45;-5.03;2.61;7.28;-0.26;0
12:00:51 ص;6.94;6.94;-1.53;1.09;-2.71;0.01
12:00:51 ص;3.26;9.86;-1.9;-0.72;0.21;0.01
12:00:51 ص;3.71;2.38;-6.47;-6;3.02;0.02
12:00:52 ص;10.7;-12.38;7.53;-8.73;1.8;0.02
12:00:52 ص;13.38;-14.64;4.64;-1.83;2.61;0
12:00:52 ص;-11.43;-6.66;9.05;8.73;1.02;0.01
12:00:52 ص;-6.61;3.32;-0.89;1.14;3.29;0.02
12:00:52 ص;10.03;-4.64;-0.73;-6.02;2.23;0.03
12:00:52 ص;13.49;-16.83;11.03;-5.85;3.6;0.01
12:00:52 ص;-8.6;-12.37;12.14;7.64;3.05;-0.01
12:00:52 ص;-0.68;1.76;-3.71;5.82;-1.5;0.03
12:00:52 ص;4.09;-0.62;-0.02;-3.55;0.48;0.03
12:00:52 ص;7.91;-13.44;8.58;-8.34;2.22;0.02
12:00:53 ص;-3.48;-14.7;16.07;3.51;4.26;-0.01
12:00:53 ص;-6.38;-1.32;-0.27;8.59;-0.06;0.02
12:00:53 ص;-0.51;2.19;4;0.48;0.71;0.03
12:00:53 ص;9.36;-1.39;3.62;-4.9;2.12;0.02
12:00:53 ص;3.56;-10.48;11.27;-6.62;2.87;0
12:00:53 ص;-5.81;-7.05;9.31;8.73;1.38;0.01
12:00:53 ص;0.53;3;2.36;4;-0.86;0.02
12:00:53 ص;6.84;0.91;3.19;0.06;-1.26;0.03
12:00:53 ص;4.59;-4.04;2.53;-6.72;2.41;0.01
12:00:54 ص;2.15;-13.83;11.79;-6.12;6.79;-0.01
12:00:54 ص;-5.72;-6.42;-0.81;8.73;-0.07;0.02
12:00:54 ص;0.91;2.4;1.48;-0.63;0.15;0.02
12:00:54 ص;5.18;-7.47;4.94;-8.57;0.56;0.02
12:00:54 ص;4.78;-15.23;17.62;-0.11;2.47;0
12:00:54 ص;-9.12;-3.18;0;8.73;-0.28;0.01
12:00:54 ص;3.25;3.47;-0.25;0.52;0.12;0.02
12:00:54 ص;6.36;-7.98;2.72;-8.73;0.02;0.02
12:00:54 ص;6.35;-15.04;10.99;-0.9;6.31;0
12:00:54 ص;-12.1;-5.08;3.34;8.73;0.86;0.01
12:00:55 ص;0;3.3;3.26;0.57;0.36;0.02
12:00:55 ص;7.62;-4.36;2.01;-6.97;0.45;0.02
12:00:55 ص;6.65;-15.67;13.11;-5.14;4.09;0
12:00:55 ص;-7.27;-5.43;0.55;8.73;0.6;0.01
12:00:55 ص;2.89;4.18;0.83;1.18;-0.12;0.02
12:00:55 ص;3.41;-2.92;1.94;-5.72;0.01;0.02
12:00:55 ص;7.04;-15.14;12.05;-7.3;3.77;0
12:00:55 ص;-0.99;-11.51;7.46;8.73;1.37;0
12:00:55 ص;-0.46;5.84;-4.78;2.4;-0.09;0.02
12:00:56 ص;6.46;-2.45;-2.1;-6.64;1.54;0.02
12:00:56 ص;3.07;-15.82;11.58;-7.73;5.49;0.01
12:00:56 ص;3.42;-8.28;7.58;3.58;-0.33;0
12:00:56 ص;-5.74;-3.62;7.83;7.88;-1.03;0.01
12:00:56 ص;1.53;1.74;1.43;3.02;-0.01;0.03
12:00:56 ص;8.85;-2.15;1.75;-4.45;1.22;0.02
12:00:56 ص;5.42;-11.74;10.48;-7.53;3.42;0
12:00:56 ص;-2.45;-10.8;15.94;7.01;1.04;0
12:00:56 ص;-3.12;1.77;0.23;4.07;-1.64;0.02
12:00:56 ص;0.76;0.09;3.95;0.84;0.07;0.03
12:00:57 ص;7.41;-6.39;6.53;-6.85;3.41;0
12:00:57 ص;-0.09;-10.18;11.76;-2.95;3.84;0
12:00:57 ص;-4.81;-5.3;7.56;8.02;0.68;0.01
12:00:57 ص;-1.7;3.28;-1.06;2.13;-0.19;0.03
12:00:57 ص;9.94;-5.67;0.8;-6.2;1.63;0.03
12:00:57 ص;3.53;-17.22;17.04;-4.26;4.22;0
12:00:57 ص;-10.76;-5.84;0.66;8.73;1.43;0.01
12:00:57 ص;-0.99;2.61;0.54;0.29;0.37;0.03
12:00:57 ص;8.63;-6.37;1.85;-7.05;2.86;0.02
12:00:58 ص;5.83;-15.2;11.64;-3.59;5.16;0
12:00:58 ص;-8.06;-7.68;4.36;8.73;0.52;0.01
12:00:58 ص;-1.81;3.28;-1.18;1.4;0.65;0.02
12:00:58 ص;7.9;-5.47;2.31;-5.98;1.74;0.02
12:00:58 ص;10.14;-14.92;11.79;-5.26;4.37;0
12:00:58 ص;-7.18;-12.52;10.85;8.73;1.07;0.01
12:00:58 ص;4.88;2.66;-4.2;-0.7;-0.27;0.03
12:00:58 ص;4.9;-7.37;0.26;-7.01;2.31;0.02
12:00:58 ص;3.59;-16.44;14.63;-3.18;5.68;0
12:00:59 ص;-3.96;-12.64;12.51;8.73;-0.16;0
12:00:59 ص;-2.59;2.43;-1.06;2.08;-0.58;0.02
12:00:59 ص;7.55;-0.25;0.26;-2.72;1.34;0.03
12:00:59 ص;3.5;-10.05;9.17;-7.25;3.55;0.01
12:00:59 ص;-2.98;-12.59;15.69;-0.43;1.69;0
12:00:59 ص;-10.04;-7.35;-0.02;8.73;-0.8;0.02
12:00:59 ص;2.35;2.55;0.73;1.51;0.49;0.02
12:00:59 ص;9.29;-3;1.08;-5.73;2.53;0.02
12:00:59 ص;5.17;-12.38;10.76;-5.99;5.54;0
12:00:59 ص;-6.15;-9.68;16.15;7.81;-0.36;0.01
12:01:00 ص;-3.02;2.76;-1.18;2.34;-1.38;0.02
12:01:00 ص;8.71;-1.02;1.43;-3.55;1.35;0.02
12:01:00 ص;5.65;-11.26;9.68;-7.16;4.43;0
12:01:00 ص;-5.06;-10.35;17.4;4.54;0.48;0
12:01:00 ص;-2.49;0.65;-2.26;4.98;-1.31;0.02
12:01:00 ص;5.99;-1.7;0.44;-2.08;-0.64;0.03
12:01:00 ص;6.32;-12.77;9.38;-7.28;3.51;0.01
12:01:00 ص;-9.15;-12.09;15.3;7.75;2.25;0
12:01:00 ص;-3.54;0.97;-3.28;5.64;-1.5;0.03
12:01:01 ص;6.23;-2.24;2.23;-2.52;0.22;0.03
12:01:01 ص;7.67;-11.7;9.53;-6.95;4.4;0
12:01:01 ص;-6.08;-10.15;15.68;6.16;1.66;0
12:01:01 ص;-2.11;2.26;-0.34;5.47;-0.93;0.02
12:01:01 ص;2.55;0.19;1.57;-2.89;1.58;0.02
12:01:01 ص;10.01;-14.56;10.18;-8.73;4.22;0
12:01:01 ص;-3.37;-11.37;12.7;7.66;3.08;0
12:01:01 ص;-1.25;0.53;1.94;5.43;-1.19;0.02
12:01:01 ص;3.28;-1.81;1.3;-3.03;-0.16;0.03
12:01:01 ص;6.94;-12.19;10.51;-7.63;3.09;0.01
12:01:02 ص;-4.73;-13.26;14.18;4.75;4.51;-0.01
12:01:02 ص;-4.31;-0.95;0.96;6.32;-1.24;0.02
12:01:02 ص;3.4;-0.1;2.13;-0.67;0.11;0.03
12:01:02 ص;6.3;-7.11;5.24;-7.07;2.91;0.01
12:01:02 ص;0.68;-14.98;14.27;-2.07;5.3;-0.01
12:01:02 ص;-4.91;-3.67;3.42;7.72;-1.18;0.02
12:01:02 ص;2.05;1.7;0.43;2.32;-0.98;0.03
12:01:02 ص;7.81;-3.35;3.46;-4.59;1.91;0.02
12:01:02 ص;3.68;-11.68;10.98;-6.29;3.63;0
12:01:03 ص;-3.26;-7.54;8.19;5.29;0.16;0.01
12:01:03 ص;-3;-1.64;7.97;4.75;-1.1;0.02
12:01:03 ص;1.2;-1.01;3.3;-0.32;0.07;0.03
12:01:03 ص;9.27;-8.32;5.95;-6.67;4.32;0
12:01:03 ص;-5.5;-10.39;16.9;2.22;0.93;0
12:01:03 ص;-4.71;-0.68;1.7;6.69;-0.82;0.02
12:01:03 ص;2.46;-0.47;0.78;-0.08;-0.81;0.03
12:01:03 ص;10.03;-9.11;4.45;-8.4;3.73;0.01
12:01:03 ص;1.62;-11.1;9.73;0.73;3.65;0
12:01:03 ص;-7.01;-4.93;5.08;8.73;0.18;0.02
12:01:04 ص;3.14;0.29;-0.4;0.8;-0.99;0.03
12:01:04 ص;12.56;-10.16;1.68;-8.54;3.4;0.01
12:01:04 ص;-2.21;-16.34;21.04;1.51;3.73;0
12:01:04 ص;-7.88;-2.83;2.77;7.87;-1.26;0.02
12:01:04 ص;3.86;-0.91;-1.28;-1.61;-1.17;0.04
12:01:04 ص;10.08;-11.14;6.16;-7.26;4.41;0.01
12:01:04 ص;-2.67;-12.57;17.98;6.31;3.65;-0.01
12:01:04 ص;-7.46;-2.23;0.68;7.83;-1.81;0.03
12:01:04 ص;6.54;-2.4;0.28;-2.67;0.1;0.04
12:01:05 ص;8.44;-11.16;5.97;-8.56;5.09;0.01
12:01:05 ص;-3.97;-12.19;11.41;-0.58;2.92;0
12:01:05 ص;-5.94;-5.74;2.25;8.73;1.54;0.01
12:01:05 ص;0.11;0.32;-1.44;-0.32;-0.57;0.04
12:01:05 ص;9.69;-12.56;2.26;-8.73;4.23;0.02
12:01:05 ص;-0.9;-18.52;21.07;4.95;3.75;0
12:01:05 ص;-9.94;-3.6;0.78;8.73;-1.12;0.02
12:01:05 ص;2.9;0.81;0.17;-0.37;0.49;0.03
12:01:05 ص;7.25;-11.43;3.84;-8.73;3.84;0.02
12:01:05 ص;-7.04;-15.57;15.51;1.55;5.32;-0.01
12:01:06 ص;-9.24;-5.16;1.64;8.73;0.13;0.02
12:01:06 ص;2.91;-0.58;3.96;0.07;0.32;0.03
12:01:06 ص;8.32;-8.41;2.21;-7.85;2.85;0.01
12:01:06 ص;1.52;-15.24;14.67;-0.64;4.81;-0.01
12:01:06 ص;-12.93;-6.23;6.15;8.73;0.27;0.02
12:01:06 ص;-1.28;1.2;-0.68;0.6;-0.17;0.04
12:01:06 ص;12.14;-6.65;-1.96;-7.51;3.37;0.02
12:01:06 ص;5.39;-16.45;11.72;-3.05;5.85;0
12:01:06 ص;-7.61;-7.98;6.35;8.73;0.43;0.01
12:01:07 ص;2.38;4.55;-2.25;1.97;-0.27;0.02
12:01:07 ص;5.8;1.48;0.94;-1.26;1.31;0.02
12:01:07 ص;7.76;-12.98;5.14;-8.73;3.16;0.01
12:01:07 ص;-4.19;-17.13;17.13;2.13;4.53;-0.01
12:01:07 ص;-4.27;-1.08;-3.48;8.06;-0.52;0.02
12:01:07 ص;3.66;0.08;2.44;1.02;1.25;0.03
12:01:07 ص;6.78;-8.62;5.01;-8.11;1.77;0.01
12:01:07 ص;-1.86;-16.9;22.3;1.98;4.73;-0.01
12:01:07 ص;-6.75;-1.24;-2.84;6.96;-1.61;0.03
12:01:08 ص;4.29;0.31;0.49;-0.76;-0.27;0.03
12:01:08 ص;8.24;-10.9;4.65;-8.73;2.3;0.02
12:01:08 ص;-7.65;-14.81;9.33;0.23;6.62;-0.01
12:01:08 ص;-5.83;-4.24;1.55;8.1;0.02;0.02
12:01:08 ص;3.09;0.1;0.67;1.61;-0.24;0.03
12:01:08 ص;8.92;-8.1;0.85;-8.09;2.21;0.02
12:01:08 ص;-0.21;-15.82;12.13;-1.85;6.07;-0.01
12:01:08 ص;-5.82;-7.78;7.46;8.73;-0.21;0.02
12:01:08 ص;-0.45;0.58;3.5;0.96;-0.23;0.02
12:01:08 ص;8.87;-1.98;1.46;-3.64;1.8;0.02
12:01:09 ص;3.88;-16.03;10.69;-8.39;3.96;0
12:01:09 ص;-5.38;-9.56;5.13;8.73;1.62;0.01
12:01:09 ص;1.25;-1.22;1.64;1.88;-1.97;0.03
12:01:09 ص;4.59;-4.66;1.19;-4.8;1.53;0.02
12:01:09 ص;3.62;-17.07;10.75;-6.03;4.24;0
12:01:09 ص;-2.68;-14.42;15.11;6.59;1.2;0
12:01:09 ص;-7.35;-2.13;4;5.14;-1.42;0.02
12:01:09 ص;4.94;-1.02;0.29;-1.3;-0.04;0.03
12:01:09 ص;5.87;-11.71;6.45;-8.64;2.93;0.01
12:01:10 ص;-0.07;-13.17;7.44;0.98;5.58;-0.01
12:01:10 ص;-6.47;-6.71;6.22;8.73;0.01;0.01
12:01:10 ص;-0.86;1.4;-0.72;1.55;-0.29;0.03
12:01:10 ص;9.26;-4.74;1.24;-5.8;2.44;0.02
12:01:10 ص;6.15;-13.04;10.95;-5.05;4.35;0
12:01:10 ص;-6.37;-9.27;9.67;8.73;0.64;0.01
12:01:10 ص;1.34;2.84;-2.5;0.51;-0.14;0.02
12:01:10 ص;5.18;-2.61;2.98;-3.38;1.2;0.02
12:01:10 ص;3.64;-12.91;10.73;-7.47;2.66;0
12:01:10 ص;-1.47;-12.03;11.69;3.4;2.85;0
12:01:11 ص;-3.67;-5.22;3.53;7.8;-1.43;0.02
12:01:11 ص;3.55;0.58;2.65;2.72;0.19;0.02
12:01:11 ص;6.41;-4.27;2.98;-6.59;1.74;0.01
12:01:11 ص;4.57;-12.12;13.41;-5.43;2.64;0
12:01:11 ص;-6.79;-8.6;8.14;8.73;2.33;0
12:01:11 ص;1.15;2.32;-2.23;3.01;-1.56;0.03
12:01:11 ص;4.51;-1.19;-1.76;-4.17;2.2;0.03
12:01:11 ص;6.44;-17.52;11.86;-8.73;5.09;0
12:01:11 ص;-4.05;-10.96;11.19;8.73;1.6;0
12:01:12 ص;-1.11;1.56;-2.12;4.49;-1.39;0.02
12:01:12 ص;3.45;-0.81;3.13;-2.06;0.76;0.03
12:01:12 ص;6.74;-10.71;5.83;-7.62;1.96;0.02
12:01:12 ص;-0.01;-15.88;17.57;3.03;3.93;-0.01
12:01:12 ص;-6.48;-2.2;2.37;6.34;-1.48;0.02
12:01:12 ص;3.41;0.85;0.81;0.05;-0.13;0.03
12:01:12 ص;5.45;-5.88;2.37;-7.12;2.2;0.02
12:01:12 ص;4.58;-14.93;14.21;-3.48;3.9;0
12:01:12 ص;-4.92;-9.47;11.17;8.73;0.2;0.01
12:01:12 ص;-0.43;1.87;-0.13;-0.66;-0.96;0.03
12:01:13 ص;6.97;-4.31;1.53;-4.56;1.89;0.02
12:01:13 ص;6.96;-12.36;10.96;-4.76;3.97;0
12:01:13 ص;-5.4;-11.21;13.76;8.29;0.55;0.01
12:01:13 ص;-1.87;1.06;-0.35;2.05;-1.27;0.03
12:01:13 ص;6.16;-1.74;-1.2;-3;3.04;0.02
12:01:13 ص;7.38;-15.04;10.39;-7.2;3.42;0.01
12:01:13 ص;-6.9;-19.22;25.5;8.73;0.96;0
12:01:13 ص;-0.38;3.34;-6.75;1.55;-0.25;0.02
12:01:13 ص;8.26;-3.5;-3.16;-5.69;1.39;0.03
12:01:14 ص;5.28;-16.69;12.2;-7.61;4.67;0.01
12:01:14 ص;-6.28;-12.67;12.69;8.27;2.09;0
12:01:14 ص;-4.23;1.08;-2.01;3.84;-0.75;0.03
12:01:14 ص;10.63;-2.3;-1.31;-3.37;0.92;0.03
12:01:14 ص;3.76;-14.65;9.3;-7.42;3.3;0.01
12:01:14 ص;-3.83;-17.94;22.85;8.73;2.94;-0.01
12:01:14 ص;-4.33;1.38;-6.36;2.29;-1.97;0.03
12:01:14 ص;12.99;-3.05;-1.3;-2.28;1.19;0.03
12:01:14 ص;9.43;-15.16;9.56;-8.53;4.01;0
12:01:14 ص;-10.48;-13.72;10.42;8.73;0.93;0
12:01:15 ص;-2.01;-0.8;-4.05;-1.44;-0.01;0.03
12:01:15 ص;8.7;-12.55;0.59;-8.73;4.08;0.02
12:01:15 ص;1.78;-21.37;20.84;5.97;4.98;-0.02
12:01:15 ص;-11.43;-0.46;-3.3;8.49;-2.47;0.02
12:01:15 ص;6.84;-0.82;-1.22;-2.23;1.87;0.03
12:01:15 ص;9.04;-14.48;7.72;-8.73;4.08;0
12:01:15 ص;-4.04;-14.2;14.01;4.24;0.21;0
12:01:15 ص;-4.82;-2.64;-2.25;8.15;-0.48;0.02
12:01:15 ص;4.89;-2.02;1.25;-0.51;1.05;0.04
12:01:16 ص;6.84;-13.34;7.55;-8.73;3.42;0
12:01:16 ص;-1.6;-14.39;15.12;2.21;2.36;-0.01
12:01:16 ص;-8.6;-5.07;0.64;8.73;-1.12;0.02
12:01:16 ص;2.58;-0.9;-0.69;0.23;0.39;0.03
12:01:16 ص;7.54;-9.59;2.86;-7.93;3.82;0.01
12:01:16 ص;-1.91;-15.66;16.58;-0.22;4.83;-0.01
12:01:16 ص;-10.07;-8.81;8.24;8.73;-1.64;0.02
12:01:16 ص;1.9;-1.6;0.57;-0.58;-1;0.04
12:01:16 ص;5.82;-9.16;1.27;-7.68;3.75;0.01
12:01:16 ص;-0.22;-16.02;17.37;-1.3;4.06;-0.01
12:01:17 ص;-8.68;-5.8;0.4;8.73;-1.23;0.02
12:01:17 ص;3.84;-1.2;0.61;1.27;-0.39;0.03
12:01:17 ص;6.67;-6.59;1.06;-6.99;3.21;0.01
12:01:17 ص;2.97;-17.12;10.98;-4.15;6.4;-0.01
12:01:17 ص;-4.8;-9.79;13.06;8.13;-0.25;0.01
12:01:17 ص;-2.95;0.37;-2.75;3.3;-1.03;0.03
12:01:17 ص;6.88;-3.38;0.74;-2.63;0.98;0.03
12:01:17 ص;8.7;-14.96;8.97;-6.57;4.86;0
12:01:17 ص;-9.63;-11.2;13.38;6.05;1.8;0
12:01:18 ص;-2.2;-0.97;-2.37;5.4;-2.24;0.03
12:01:18 ص;10.25;-2.3;1.75;0.89;0.55;0.03
12:01:18 ص;9.45;-13.18;4.54;-8.61;2.28;0.01
12:01:18 ص;-5.08;-13.77;17.16;8.73;3.31;-0.01
12:01:18 ص;-5.67;-1.3;4.37;5.2;-1.51;0.02
12:01:18 ص;2.14;-2.74;1.96;-1.81;-0.39;0.03
12:01:18 ص;7.72;-9.99;3.05;-7.27;3.25;0.01
12:01:18 ص;0.87;-14.8;13.96;1.07;4.84;-0.01
12:01:18 ص;-10.03;-2.8;-3.8;8.73;-2.66;0.02
12:01:18 ص;0.53;0.54;-1.53;0.41;1.41;0.03
12:01:19 ص;5.85;-6.47;3.16;-6.39;4.51;0.02
12:01:19 ص;8.78;-14.96;9.4;-4;4.44;0.01
12:01:19 ص;-8.69;-11.07;10.7;7.12;1.23;0
12:01:19 ص;-4.19;-0.75;1.97;5.55;-0.37;0.02
12:01:19 ص;3.38;-1.5;3.75;-0.17;-0.22;0.03
12:01:19 ص;7.82;-11.21;3.83;-8.73;2.64;0.01
12:01:19 ص;-0.82;-18.01;19;2.93;4.12;-0.01
12:01:19 ص;-11.23;-2.48;-4.44;8.15;-1.59;0.03
12:01:19 ص;8.39;-0.3;-1.18;-0.92;0.52;0.03
