Timestamp;Accel X;Accel Y;Accel Z;Gyro X;Gyro Y;Gyro Z
06:55:38 م;1.22;-5.37;4.3;1.63;-0.78;0.01
06:55:38 م;0.71;-5.49;7.98;8.29;1.16;0
06:55:38 م;1.68;4.86;4.63;4.45;-0.22;0.01
06:55:38 م;1.62;7.59;5.13;2.21;-0.2;0.01
06:55:38 م;1.36;9.04;-1.52;-1.28;-0.48;0.01
06:55:38 م;-2.3;-2.58;5.18;-8.73;-0.64;0.02
06:55:38 م;3.33;-10.66;9.09;-8.73;0.09;0.02
06:55:38 م;0.74;-8.03;2.25;1.02;0.12;0.01
06:55:38 م;0.69;-10.84;5.57;-0.3;-1.22;0.01
06:55:38 م;1.45;-13.05;7.1;8.73;0.08;0.01
06:55:38 م;3.11;3.28;0.08;8.27;-0.98;0.01
06:55:38 م;2.37;8.33;-0.15;-1.55;0.41;0.01
06:55:38 م;-1.09;-10.46;-1.07;-8.73;-1.2;0.02
06:55:39 م;-1.34;-16.32;7.32;1.14;0.47;0.01
06:55:39 م;0.56;-16.24;8.73;1.84;-1.05;0.01
06:55:39 م;-1.4;-7.21;7.33;8.73;-1.47;0.01
06:55:39 م;2.58;5.4;3.54;6.02;-0.74;0.01
06:55:39 م;1.75;8.35;-0.36;2.34;-0.16;0.01
06:55:39 م;0.07;-0.84;-2.85;-8.73;0.13;0.02
06:55:39 م;6.87;-20.39;15.78;-8.73;-4.59;0.02
06:55:39 م;0.48;-7.34;-0.62;-4.26;-0.83;0.02
06:55:39 م;2.58;-10.1;3.47;8.73;0.49;0.01
06:55:40 م;2.49;-3.27;9.51;6.06;-0.38;0.01
06:55:40 م;2.4;3.33;7.01;6.95;-1.13;0
06:55:40 م;0.16;9.86;-2.48;3.29;-0.81;0.01
06:55:40 م;-0.09;10.21;-5.98;-0.9;0.25;0.01
06:55:40 م;-1.61;5.51;0.73;-8.63;-0.34;0.02
06:55:40 م;0.95;1.3;0.34;-6.19;0.87;0.02
06:55:40 م;-0.02;-15.97;10.6;-8.73;0.14;0.02
06:55:40 م;0.93;-8.73;0.18;-3.82;0.42;0.01
06:55:40 م;2.48;-12.5;5.67;5.62;-0.65;0.01
06:55:40 م;-0.91;-7.1;2.32;8.73;-1.29;0.01
06:55:41 م;3.9;2.81;7.42;8.73;-0.9;0
06:55:41 م;1.44;9.2;-2.59;3.46;-0.83;0.01
06:55:41 م;-0.72;8.85;-8.03;-3.05;0.36;0.01
06:55:41 م;-1.14;4.25;-2.97;-8.73;1.13;0.02
06:55:41 م;1.89;-21.12;9.4;-8.73;0.05;0.02
06:55:41 م;2.11;-8.54;-0.01;-1.57;-0.27;0.01
06:55:41 م;1.82;-11.56;2.53;6.49;-0.4;0.01
06:55:41 م;1.69;-6.11;2;8.73;-0.77;0.01
06:55:41 م;1;2.25;-0.39;8.73;0.18;0.01
06:55:42 م;2.59;9.58;0.02;2.19;0.15;0.01
06:55:42 م;1.39;9.62;-3.45;-2.74;0.7;0.01
06:55:42 م;0.87;0.61;5.17;-8.73;-0.85;0.02
06:55:42 م;1.02;-13.33;9.39;-8.73;1.6;0.02
06:55:42 م;1.3;-6.28;-0.99;-2.84;1.08;0.01
06:55:42 م;0.22;-14.09;2.84;0.92;-0.45;0.01
06:55:42 م;0.85;-12.25;4.57;8.73;0.63;0
06:55:42 م;7.74;4.52;5.15;8.73;-2.07;0.01
06:55:42 م;3.27;9.16;-4.01;2.88;-0.84;0.01
06:55:43 م;0.18;9.44;-3.59;-1.46;0.13;0.01
06:55:43 م;-0.09;5.67;5.3;-8.2;0.16;0.02
06:55:43 م;1.76;-9.81;5.3;-8.73;-0.44;0.02
06:55:43 م;-4.33;-11.23;4.55;1.83;-1.13;0.01
06:55:43 م;-2.44;-10.3;5.01;-0.5;0.51;0.01
06:55:43 م;2.77;-12.64;2.04;8.73;3;0
06:55:43 م;9.98;5.03;-1.73;8;-2.72;0.02
06:55:43 م;1.25;9.74;-1.64;3.45;-0.51;0.01
06:55:43 م;-2.39;8.74;-2.84;0.59;-0.34;0.01
06:55:43 م;0.37;9.32;-6.15;-0.31;0.14;0.01
06:55:44 م;0.04;9.62;-11.98;-5.37;1.3;0.01
06:55:44 م;0.36;-6.56;5.81;-8.73;-2.41;0.02
06:55:44 م;-5.54;-15.05;7.14;-8.73;2.79;0.01
06:55:44 م;-0.37;-10.42;-0.05;-2.5;0.55;0.01
06:55:44 م;-0.73;-8.68;-1.22;-0.12;-0.12;0.01
06:55:44 م;1.56;-19.09;12.28;8.73;-1.94;0.01
06:55:44 م;2.49;2.88;7.93;8.73;-3.15;0.02
06:55:44 م;-0.72;8.38;-4.82;4.51;-0.8;0.01
06:55:44 م;-1.6;8.87;-6.42;0.97;0.06;0
06:55:45 م;-0.83;9.84;-5.95;-2.39;0.83;0.01
06:55:45 م;1.19;8.8;-5.55;-7.8;1.6;0.02
06:55:45 م;0.74;-15.15;1.64;-8.73;0.59;0.02
06:55:45 م;5.11;-11.95;-0.86;2.05;-0.04;0.01
06:55:45 م;2.09;-11.66;-1.53;-2.3;-0.75;0.02
06:55:45 م;1.23;-11.39;-0.66;1.05;-0.7;0.01
06:55:45 م;6.47;-15.78;7.36;8.73;2.85;-0.01
06:55:46 م;-0.92;-7.09;2.86;8.73;-2.26;0.02
06:55:46 م;3.21;5.53;-2.8;4.72;-1.29;0.01
06:55:46 م;-0.66;8.36;-7.81;0.98;-0.39;0.01
06:55:46 م;-2.26;9.1;-9.08;-5.14;0.34;0.02
06:55:46 م;-0.19;-11.4;-0.7;-8.73;-0.66;0.02
06:55:46 م;5.44;-20.3;6.72;-3.3;-0.7;0.01
06:55:46 م;0.95;-13.9;-2.91;-1.97;0.32;0.01
06:55:46 م;-0.32;-12.07;-3.51;-0.54;-0.52;0.01
06:55:46 م;2.86;-17.54;2.12;8.73;0.21;0.01
06:55:46 م;-1.74;-10.34;4.22;8.73;0.58;0.01
06:55:46 م;2.27;4.73;-4.36;8.72;-1.3;0.01
06:55:46 م;1.51;7.23;-8.94;2.81;0.33;0
06:55:47 م;-0.52;9.69;-2.85;-0.46;-0.19;0.02
06:55:47 م;0.99;8.62;-8.71;-5.88;1.18;0.01
06:55:47 م;3.02;-7.14;-4.15;-8.73;-0.94;0.02
06:55:47 م;6.05;-21.35;2.17;-8.59;-0.71;0.01
06:55:47 م;3.71;-11.76;-5.64;-1.64;-0.35;0.01
06:55:47 م;2.64;-14.51;-3.61;1.48;-0.73;0.01
06:55:47 م;4.82;-20.9;2.16;8.73;2.37;0
06:55:47 م;1.15;-2.51;-6.7;8.73;-2.93;0.01
06:55:47 م;0.88;8.24;-3.56;3.8;-0.39;0
06:55:48 م;-0.08;10.14;-4.92;0.53;-0.28;0.01
06:55:48 م;-1.29;8.86;-9.04;-5.77;0.87;0.02
06:55:48 م;3.2;-10;-0.7;-8.73;-0.51;0.02
06:55:48 م;-1.24;-1.5;-1.54;0.12;1.47;0.01
06:55:48 م;1.06;-9.26;-2.5;-0.45;-0.19;0.01
06:55:48 م;1.37;-13.41;1.09;1.6;0.01;0.01
06:55:48 م;0.35;-19.66;8.62;8.73;4.37;0
06:55:48 م;2.03;5.84;-0.43;8.3;-1.36;0.01
06:55:49 م;-1.72;8.6;-7.66;2.5;-0.35;0.01
06:55:49 م;-3.83;8.53;-8.42;-2.15;0.36;0.01
06:55:49 م;0.27;4.88;-14.16;-8.73;0.7;0.02
06:55:49 م;-2.26;-14.09;2.98;-8.73;1.92;0.02
06:55:49 م;2.6;-7.11;-1.59;-1.07;0.56;0.01
06:55:49 م;0.43;-10.72;-2.34;0.72;-0.11;0.01
06:55:49 م;1.97;-15.04;0.13;7.65;-3;0
06:55:49 م;5.03;-18.94;11.25;8.73;0.05;0.01
06:55:49 م;4.7;8.1;-7.41;8.73;0.08;0
06:55:49 م;-2.3;9.3;-2.45;2.32;0.5;0.01
06:55:49 م;-2.01;9.37;-3;0.06;0.02;0.01
06:55:49 م;-0.95;11.17;-1.2;-0.98;0.03;0.01
06:55:50 م;0.16;6.16;-13.99;-8.73;0.06;0.02
06:55:50 م;5.83;-6.95;-8.02;-8.73;-0.64;0.01
06:55:50 م;-0.87;-8.54;0.07;-2.68;0.74;0.01
06:55:50 م;1.3;-10.65;-0.91;-1.84;0.03;0.01
06:55:50 م;-0.4;-15.59;2.8;4.66;-1.03;0.01
06:55:50 م;-3.52;-2.93;-9.17;8.73;1.17;0.02
06:55:50 م;4.59;10.43;-4.16;5.15;0.83;0
06:55:50 م;1.38;9.45;-5.18;2.01;0.25;0.01
06:55:50 م;-1.93;10.57;-2.88;0.19;-0.13;0.02
06:55:51 م;0.5;6.61;-10.68;-8.73;-1.46;0.03
06:55:51 م;-0.37;-11.68;-2.9;-8.73;2.98;0.02
06:55:51 م;4.69;-7.89;-0.74;5.02;-1.06;0.02
06:55:51 م;3.03;-8.12;-2.51;0.24;0.16;0.01
06:55:51 م;1.59;-9.15;-0.99;-0.09;0.58;0.01
06:55:51 م;9.12;-24.38;8.37;8.73;-3.17;0.01
06:55:51 م;1.58;-1.1;6.09;8.73;-0.41;0.01
06:55:51 م;-4.14;5.81;-9.99;7.24;-0.19;0
06:55:51 م;-1.03;9.74;-7.7;-0.03;-0.35;0.02
06:55:51 م;-1.65;10.6;-4.92;-2.52;0.66;0.01
06:55:52 م;-1.11;8.92;-2.2;-4.28;0.82;0.02
06:55:52 م;3.26;6.2;-7.21;-8.73;-0.95;0.03
06:55:52 م;2.83;-26.67;-2.64;-8.73;1.88;0.03
06:55:52 م;-0.61;-10.64;-1.29;-3.77;0.99;0
06:55:52 م;1.62;-10.52;-3.05;1.27;-0.74;0.01
06:55:52 م;4;-14.77;1.33;8.73;-0.96;0.01
06:55:52 م;2.94;-10.22;-0.46;8.73;1.25;0
06:55:52 م;-0.35;8.92;-9.23;4.64;-1.09;0.01
06:55:52 م;-2.14;10.29;-4.35;1.01;0.71;0
06:55:53 م;-2.21;7.46;-4.4;-0.38;0.45;0.01
06:55:53 م;-2.38;8.09;-8.64;-8.73;1.66;0.02
06:55:53 م;6.14;-6.75;-0.97;-8.73;-2.27;0.03
06:55:53 م;-0.25;-14.41;5;-5.43;-6.22;0.02
06:55:53 م;2.12;-11.82;-2.65;-2.34;-0.03;0.01
06:55:53 م;0.73;-13.56;1.71;1.73;-0.85;0.01
06:55:53 م;3.54;-16.49;3.87;8.73;2.94;-0.01
06:55:53 م;1.09;3.71;-0.31;8.73;0.04;-0.01
06:55:53 م;-0.76;8.04;-7.53;1.71;-0.31;0.01
06:55:53 م;-1.34;8.49;-3.76;-1.08;0.14;0.01
06:55:54 م;-0.56;9.76;-6.11;-3.86;0.1;0.02
06:55:54 م;-0.95;4;-7.1;-8.73;0.39;0.02
06:55:54 م;1.62;-31.44;-2.83;-8.73;-3.09;0.02
06:55:54 م;2.91;-6.92;-5.97;-4.03;1.01;0
06:55:54 م;1.72;-9.94;-5.95;-0.22;0.75;0
06:55:54 م;3.14;-15.16;-3.21;8.73;2.49;-0.01
06:55:54 م;1.82;-11.13;6.38;8.73;0.45;0
06:55:54 م;-1.99;6.78;-9.9;8.73;-0.39;0.01
06:55:54 م;1.6;10.56;-4.41;2.81;0.63;0.01
06:55:55 م;-1.58;7.91;-8.49;0.85;0.61;0.01
06:55:55 م;-0.75;9.82;-7.2;-1.81;0.29;0.02
06:55:55 م;3.26;7.28;6.93;-7.19;-2.25;0.03
06:55:55 م;-0.87;-6.19;-0.29;-8.73;-4.73;0.02
06:55:55 م;0.47;-13.96;4.99;-8.09;0.05;0.02
06:55:55 م;-0.56;-8.5;0.07;-4.22;-0.36;0.01
06:55:55 م;0.95;-12.15;-3.92;-0.6;0.05;0.01
06:55:55 م;1.89;-13.09;-0.52;6.41;0.58;0.01
06:55:55 م;2.57;-5.44;0.51;4.39;0.57;0.01
06:55:56 م;3.29;-2.11;4.53;5.36;0.49;0.01
06:55:56 م;3.09;-1.22;9.45;2.5;-0.06;0.01
06:55:56 م;1.14;-0.44;11.36;1.89;-0.48;0.01
06:55:56 م;-0.73;3.07;9.6;1.78;-0.43;0.01
06:55:56 م;0.21;4.92;7.36;1.43;-0.13;0.01
06:55:56 م;0.91;7.07;5.13;2;0.13;0.01
06:55:56 م;-0.19;8.29;3.26;1.84;0.74;0.01
06:55:56 م;-1.19;8.92;4.35;2.77;0.46;0.01
06:55:56 م;2.7;8.66;-7.06;4.4;-1.17;0.02
06:55:56 م;-2.14;8.58;-7.06;0.77;0.07;0.01
06:55:57 م;-2.12;9.22;-4.66;-0.56;0.29;0.01
06:55:57 م;2.27;9.41;-5.48;-2.29;0.05;0.01
06:55:57 م;-0.66;7.9;0.88;-4.28;1.85;0
06:55:57 م;-0.64;7.88;3.04;-4.01;-1.09;0.02
06:55:57 م;0.14;5.7;5.93;-2.87;-1.26;0.02
06:55:57 م;2.72;3.86;4.65;-3.12;-2.1;0.02
06:55:57 م;2.4;-6.37;11.48;-8.09;-1.5;0.02
06:55:57 م;1.6;-5.2;3.43;-4.94;0.44;0.01
06:55:57 م;0.53;-7.54;-1.78;-5.27;-0.62;0.01
06:55:58 م;2.19;-9.88;-4.27;-5.16;-0.69;0.02
06:55:58 م;0.98;-11;-5.69;-0.46;-0.28;0.01
06:55:58 م;2.05;-11.97;-4.01;5.06;0.34;0.01
06:55:58 م;5.05;-14.28;4.4;8.73;-0.33;0
06:55:58 م;5.15;-4.34;5.96;8.73;1.1;0
06:55:58 م;1.27;6.93;5.74;6.12;-1.34;0.01
06:55:58 م;-1.09;9.64;2.04;3.19;0.21;0
06:55:58 م;2.47;9.49;-2.04;2.03;0.38;0
06:55:58 م;1.67;9.71;-2.57;2.47;-0.53;0.01
06:55:58 م;0.72;8.93;-6.35;1.66;-0.04;0.01
06:55:59 م;-0.88;8.06;-7.99;0.1;0.13;0.01
06:55:59 م;-1.14;9.05;-7.61;-0.37;0.33;0.01
06:55:59 م;-2.23;9.5;-7.78;-5.24;1.01;0.02
06:55:59 م;2.14;6.54;-1;-8.42;1.28;0.02
06:55:59 م;5.61;0.58;2.45;-7.98;0.57;0.01
06:55:59 م;2.8;-11.35;5.94;-8.73;-1.08;0.01
06:55:59 م;4.35;-11.03;1.61;-3.63;-0.2;0.01
06:55:59 م;2.13;-10.37;-3.03;-2.41;-0.6;0.02
06:55:59 م;2.44;-8.4;-5.26;-1.17;-0.55;0.02
06:56:00 م;1.58;-7.17;-7.09;0.17;-0.06;0.01
06:56:00 م;2.72;-10.58;-5.08;2.21;0.61;0.01
06:56:00 م;7.99;-15;-0.16;8.73;1.97;-0.01
06:56:00 م;2.67;-0.01;2.03;8.29;0.34;0.01
06:56:00 م;1.18;5.44;4.18;5.17;1.03;0
06:56:00 م;-1.01;8.29;1.84;2.92;-0.19;0.01
06:56:00 م;2.27;10.32;0.84;2.01;-0.04;0.01
06:56:00 م;2.02;9.95;-3.27;1.7;0.75;0
06:56:00 م;-0.67;9.11;-4.51;0.57;0.11;0.01
06:56:01 م;-1.28;9.93;-2.69;-0.29;0.01;0.02
06:56:01 م;-1.52;9.41;-1.95;-4.52;0.96;0.02
06:56:01 م;2.09;0.58;-1.34;-8.73;-0.76;0.02
06:56:01 م;1.64;-15.29;4.8;-8.73;2.14;0.02
06:56:01 م;1.65;-9.2;-3.21;-6.34;0.63;0.01
06:56:01 م;0.38;-9.1;-6.46;-1.59;0.65;0.01
06:56:01 م;0.38;-7.74;-6.8;-0.3;-0.05;0.01
06:56:01 م;1.74;-8.41;-6.45;0.44;-0.39;0.01
06:56:01 م;2.6;-10.67;-4.47;3.66;0.54;0.01
06:56:01 م;3.95;-11.07;-2.35;8.73;1.21;0.02
06:56:02 م;2.57;-1.5;2.42;8.73;1.48;0
06:56:02 م;2.39;4.15;6.8;7.36;0.03;0
06:56:02 م;-1.4;9.43;-0.14;3.92;-0.25;0
06:56:02 م;-1.01;9.63;0.33;2.09;0.51;0
06:56:02 م;-1.54;8.67;-2.92;0.03;0.94;0.01
06:56:02 م;-0.04;10.18;-2.29;0.23;-0.33;0.02
06:56:02 م;-1.41;10.15;-3.78;0.1;-0.05;0.02
06:56:02 م;-2.26;10.25;-6.44;-6.66;0.23;0.02
06:56:02 م;3.8;-3.74;1.06;-8.73;-2.44;0.04
06:56:02 م;-1.42;-18.16;1.86;-8.73;-0.65;0.02
06:56:03 م;1.48;-7.03;-4.47;-3.65;0.42;0.01
06:56:03 م;3.32;-7.52;-8.12;-2.33;0.37;0.01
06:56:03 م;1.78;-8.71;-9.02;1.08;0.42;0.01
06:56:03 م;4.62;-15.85;-5.69;8.73;1.87;-0.01
06:56:03 م;3.12;-10.79;4.75;8.73;0.55;0
06:56:03 م;3.15;2.35;2.81;8.73;0.04;-0.01
06:56:03 م;-2.38;8.09;-4.51;4.97;-1.19;0.01
06:56:03 م;-2.49;8.14;-6.45;-0.93;-0.25;0.02
06:56:03 م;-2.29;6.37;2.04;-8.46;0.32;0.02
06:56:04 م;3.5;-3.4;1.84;-8.73;-0.6;0.03
06:56:04 م;0.11;-12.28;0.89;-8.73;1.45;0.02
06:56:04 م;1.28;-10.75;-2.1;-3;-0.52;0.02
06:56:04 م;1.58;-9.92;-4.98;-0.69;-0.14;0.01
06:56:04 م;5.29;-22.01;-3.01;8.73;1.51;0
06:56:04 م;1.93;-3.02;-0.17;8.73;1.18;-0.01
06:56:04 م;1.2;8.13;-5.9;6.81;-0.29;0
06:56:04 م;-0.55;11.01;-4.82;1.65;-0.2;0.01
06:56:04 م;-0.45;10.54;-1.52;-2.91;0.23;0.02
06:56:04 م;0.53;-6.66;-1.39;-8.73;-2.04;0.03
06:56:05 م;-0.72;-19.13;-1.22;-8.73;0.08;0.02
06:56:05 م;0.93;-8.14;-3.2;-3.27;0.47;0.01
06:56:05 م;0.21;-11.13;-6.66;-0.36;0.25;0.01
06:56:05 م;2.03;-15.51;-4.58;7.72;1.72;0
06:56:05 م;2.82;-14.02;6.43;8.73;1.86;0
06:56:05 م;-1.19;1.21;-0.28;8.73;2.26;0
06:56:05 م;-1.15;8.65;-4.29;5.22;-0.51;0.01
06:56:05 م;3.81;10.27;-5.49;0.91;0.07;0.01
06:56:05 م;1.25;10.1;-6.12;-1.73;0.28;0.02
06:56:06 م;-0.65;4.47;5.54;-7.64;-0.4;0.03
06:56:06 م;5.05;-4.16;4.99;-8.73;-0.24;0.03
06:56:06 م;1.6;-12.84;0.38;-8.73;0.67;0.02
06:56:06 م;0.76;-8.31;-2.53;-3.27;0.01;0.01
06:56:06 م;1.3;-9.4;-8.57;-0.59;-0.29;0.01
06:56:06 م;2.98;-17.4;-4.83;8.73;1.56;-0.01
06:56:06 م;5.03;-13.21;2.35;8.73;1.64;0
06:56:06 م;0.02;1.42;1.62;8.73;1.36;0
06:56:06 م;-0.61;8.81;-3;4.58;-0.59;0.01
06:56:07 م;0.31;9.82;-3.07;0.97;-0.41;0.01
06:56:07 م;-0.9;9.6;-2.78;-2.37;0.29;0.02
06:56:07 م;-2.95;1.16;-4.52;-8.73;0.23;0.03
06:56:07 م;2.15;-16.82;1.79;-8.73;1.82;0.02
06:56:07 م;2.31;-11.27;-4.32;-3.2;-0.8;0.02
06:56:07 م;1.55;-7.03;-6.02;-2.26;-0.14;0.01
06:56:07 م;4.03;-15.83;-4.94;5.21;-0.12;0
06:56:07 م;1.77;-10.3;-7.81;8.73;3.22;-0.01
06:56:07 م;3.48;-7.98;5.61;4.26;0.24;0.01
06:56:07 م;4.6;-5.51;4.33;8.73;1.62;-0.01
06:56:08 م;-2.34;9.33;-7.93;4.74;-0.51;0.01
06:56:08 م;-1.01;9.16;-6.88;-0.1;0.03;0.01
06:56:08 م;0.51;10.47;-8.04;-4.91;0.78;0.01
06:56:08 م;0.92;0.37;-6.07;-8.73;-1.05;0.02
06:56:08 م;0.28;-18.99;0.47;-8.73;-2.6;0.02
06:56:08 م;1.06;-7.71;-5.84;-3.46;0.12;0.01
06:56:08 م;0.95;-10.01;-7.29;-0.6;0.15;0.01
06:56:08 م;2.45;-15.96;-3.06;8.73;1.9;0
06:56:08 م;1.59;-3.5;3.15;7.84;-0.58;0.01
06:56:09 م;1.19;2.43;7.28;8;1.75;0
06:56:09 م;-2.14;6.68;1.15;4.83;1.67;0
06:56:09 م;-0.65;10.29;0.36;1.09;0.35;0.01
06:56:09 م;-0.07;10.1;-1.6;-1.15;0.23;0.01
06:56:09 م;0.8;6.65;3.38;-6.23;-0.48;0.02
06:56:09 م;-0.03;5.4;4.49;-4.11;0;0.02
06:56:09 م;2.44;-6.44;4.71;-8.73;-0.52;0.02
06:56:09 م;2.94;-14.43;2.07;-6.07;-1.56;0.02
06:56:09 م;1.07;-11.08;-2.62;-3.1;-0.32;0.01
06:56:09 م;0.76;-10.02;-5.21;0.2;-0.08;0.01
06:56:10 م;2.98;-14.89;-3.44;8.73;1.6;0
06:56:10 م;2.09;-5.7;5.16;8.73;-0.07;0
06:56:10 م;2.13;3.94;1.28;8.73;0.11;0
06:56:10 م;-1.45;9.19;-0.41;4.49;-0.7;0.01
06:56:10 م;0.61;9.05;-3.39;1.96;0.04;0.01
06:56:10 م;0.71;9.64;-5.63;0.61;0.04;0.01
06:56:10 م;-0.49;10.69;-7.3;-4.09;0.38;0.02
06:56:10 م;0.24;1.03;-0.02;-8.73;-2.23;0.04
06:56:10 م;-0.78;-11.44;0.41;-8.73;3.57;0.02
06:56:11 م;2.07;-10.43;-2.25;-1.85;0.71;0.01
06:56:11 م;1.6;-8.47;-2.07;-0.33;-0.26;0.01
06:56:11 م;2.44;-12.4;-2.42;2.28;-0.92;0.02
06:56:11 م;2.83;-12.71;1.01;7.29;0.45;0.01
06:56:11 م;2.69;-7.57;4.22;8.73;0.56;0
06:56:11 م;3.51;4.45;-1.13;8.73;-0.73;0
06:56:11 م;-1.9;7.95;-5.16;4.37;-0.4;0
06:56:11 م;1.04;8.1;-8.73;1.42;-0.12;0.01
06:56:11 م;-1.99;7.49;-6.93;-0.36;0.28;0.01
06:56:11 م;-1.02;8.16;-6.71;-3.34;0.36;0.02
06:56:12 م;-0.93;6.03;-4.2;-8.73;0.01;0.03
06:56:12 م;2.68;-0.77;-2.08;-8.73;-1.3;0.02
06:56:12 م;0.21;-17.97;-1.5;-8.73;-0.14;0.02
06:56:12 م;4.02;-5.6;-3.71;-1.85;0.23;0.01
06:56:12 م;2.1;-8.46;-4.82;-1.62;0.4;0.01
06:56:12 م;1.48;-9.33;-5.77;1.77;0.52;0.01
06:56:12 م;2.76;-13.58;-5.24;8.73;1.61;0
06:56:12 م;3.38;-0.98;-6.35;8.73;3.37;0
06:56:12 م;-2.77;9.08;-7.06;5.44;1.42;0.01
06:56:13 م;-0.94;10.31;-1.36;1.4;-0.02;0.01
06:56:13 م;0.03;10.22;-4.5;-0.68;0.02;0.02
06:56:13 م;0.84;7.19;-1.86;-8.73;-0.14;0.03
06:56:13 م;6.19;-8.2;-1.22;-8.73;-1.7;0.03
06:56:13 م;2.72;-20.26;-0.64;-8.73;0.02;0.03
06:56:13 م;2.18;-9.87;-10.86;-1.74;-0.09;0.02
06:56:13 م;0.67;-8.04;-6.87;0.46;-0.06;0.01
06:56:13 م;2.86;-17.04;-4.88;8.73;0.34;0
06:56:13 م;4.98;-10.27;2.11;8.73;0.61;0.01
06:56:13 م;-1.68;6.62;-8.75;8.73;-0.39;0
06:56:14 م;2.32;11.12;-1.27;2.48;-0.01;0.01
06:56:14 م;-1.51;9.29;-5.87;0.07;0.38;0.01
06:56:14 م;-1.24;9.92;-5.17;-3.28;1.01;0.01
06:56:14 م;2.88;7.86;3.87;-5.79;-1.95;0.04
06:56:14 م;2.67;-6.52;0.51;-8.73;-2.46;0.03
06:56:14 م;8.06;-17.94;2.45;-8.73;-2.34;0.03
06:56:14 م;0.47;-7.23;-3.18;-1.67;0.46;0.01
06:56:14 م;1.57;-8.81;-5.15;0.35;0.03;0.01
06:56:14 م;3.64;-11.59;-3.3;5.28;0.58;0
06:56:15 م;3.64;-9.56;2.03;8.44;2.3;0
06:56:15 م;2.59;0.32;4.11;8.73;0.41;0
06:56:15 م;0.57;8.04;-0.42;6.41;-0.31;0
06:56:15 م;0.7;10.06;-2.35;2.95;0;0
06:56:15 م;-1.29;9.42;-6.35;-0.23;-0.17;0.01
06:56:15 م;0.11;9.6;-5.19;-3.02;-0.21;0.03
06:56:15 م;2.46;8.03;-1.88;-7.01;0.94;0.02
06:56:15 م;5.45;-0.97;-0.56;-8.73;-0.24;0.03
06:56:15 م;2.88;-20.08;3.58;-8.73;-2.59;0.03
06:56:15 م;0.85;-8.66;-5.13;-3.42;-0.62;0.01
06:56:16 م;1.8;-8.83;-7.32;-0.7;-0.49;0.01
06:56:16 م;3.36;-14.08;-4.95;6.23;0.35;0.01
06:56:16 م;5.38;-16.26;0.26;8.18;0.63;0
06:56:16 م;-1.95;3.34;1.61;8.73;0.52;0.02
06:56:16 م;1.33;7.22;1.46;5.87;-0.16;0.01
06:56:16 م;0.4;10.11;-4.53;3.84;0.14;0
06:56:16 م;-0.49;10.06;-1.76;1.05;-0.33;0.01
06:56:16 م;-0.18;10.8;-3.48;-1.49;0.07;0.02
06:56:16 م;1.25;9.33;-5.71;-8.73;0.86;0.03
06:56:17 م;7.14;-7.96;3.16;-8.73;-0.2;0.02
06:56:17 م;2.09;-12.29;0.85;-7.04;-2.09;0.02
06:56:17 م;1.73;-7.5;-3.28;-3.39;-0.72;0.02
06:56:17 م;1.59;-9.13;-9.27;-1.45;-0.47;0.01
06:56:17 م;2.22;-12.39;-6.12;6.66;1.32;0
06:56:17 م;4.89;-13.26;-1.26;8.73;2.34;0
06:56:17 م;1.14;3.57;-2.21;8.73;1.39;-0.01
06:56:17 م;-1.92;9.74;-6.16;5.63;-0.27;0.01
06:56:17 م;1.31;10.36;-3.18;0.62;-0.05;0.01
06:56:18 م;2.93;10.2;-3.81;0.55;-0.43;0.01
06:56:18 م;-1.17;9.96;-9.92;-3;0.56;0.01
06:56:18 م;-1.37;-11.14;-7.52;-8.73;-4.96;0.03
06:56:18 م;1.39;-19.38;5.88;-6.68;-2.85;0.03
06:56:18 م;1.51;-11.19;-2.41;-7.1;0.22;0.02
06:56:18 م;1.13;-11.95;-8.24;-1.38;-0.34;0.01
06:56:18 م;2.65;-20.34;-6.77;8.73;1.73;0
06:56:18 م;3.53;-6.54;-2.18;8.73;2.41;0
06:56:18 م;-0.94;9.19;-8;8.73;-0.55;0.01
06:56:18 م;-0.97;9.29;-5.68;2.09;-0.57;0.02
06:56:19 م;-0.19;9.27;-3.92;-0.41;0.12;0.01
06:56:19 م;-0.8;10.51;-5.15;-5.48;0.55;0.02
06:56:19 م;-1.24;-0.51;-3.86;-8.73;-1.47;0.02
06:56:19 م;-0.07;-16.84;4.46;-8.73;-1.97;0.02
06:56:19 م;2.89;-9.73;-1.17;-4.56;-0.81;0.01
06:56:19 م;1.51;-9.16;-7.36;-2.51;-0.37;0.01
06:56:19 م;1.02;-8.15;-7.35;-0.13;0.08;0.01
06:56:19 م;3.19;-14.57;-2.19;5.55;0.72;0.01
06:56:19 م;3.83;-10.72;-0.59;8.73;4.01;0
06:56:20 م;-0.13;2.43;2.9;8.58;1.54;0
06:56:20 م;-0.37;8.59;-4.22;6.28;-0.35;0.01
06:56:20 م;3.06;10.82;-4.94;0.46;-0.27;0.01
06:56:20 م;1.28;10.26;-3.72;-0.09;0.25;0.01
06:56:20 م;-1.2;5.77;-8.9;-8.73;1.54;0.02
06:56:20 م;0.21;-23.86;-0.89;-8.73;0.99;0.02
06:56:20 م;2.26;-2.26;-5.34;-0.3;0.4;0.01
06:56:20 م;1.52;-8.39;-5.19;0.19;0.07;0.01
06:56:20 م;1.3;-10.62;-3.71;2.31;-0.39;0.01
06:56:20 م;2.4;-15.68;-0.27;3.43;0.95;0.01
06:56:21 م;1.25;-10.03;2.66;8.73;1.02;0
06:56:21 م;0;5.36;5.34;7.01;0.2;0.01
06:56:21 م;0.73;8.86;-1.04;3.65;-0.39;0.01
06:56:21 م;-0.56;9.93;-2.76;1.03;-0.46;0.01
06:56:21 م;0.37;10.28;-2.76;-0.06;-0.11;0.01
06:56:21 م;0.9;10.04;-5.45;-1.52;0.36;0.01
06:56:21 م;-3.13;-1.66;-5.87;-8.73;-0.52;0.02
06:56:21 م;3.16;-18.21;6.43;-8.73;-0.1;0.02
06:56:21 م;3.02;-8.74;-5.64;-1.95;0.41;0.01
06:56:22 م;2.14;-9.17;-3.53;1.05;0.21;0.01
06:56:22 م;3.43;-17.93;0.62;7.69;-0.65;0
06:56:22 م;2.66;-6.09;3.82;8.73;0.07;0.01
06:56:22 م;1.87;-1.59;7.87;8.73;-1.23;0.01
06:56:22 م;2.11;8.16;-5.02;6.62;-1.12;0
06:56:22 م;-1.68;8.9;-7.1;1.06;0.19;0
06:56:22 م;-0.85;10.15;-4.71;-1.23;0.21;0.02
06:56:22 م;0.17;6.38;0.2;-7.44;-0.17;0.02
06:56:22 م;3.71;-5.17;-0.59;-8.73;-0.67;0.02
06:56:22 م;2.44;-20.83;1.96;-8.73;-1.58;0.02
06:56:23 م;0.52;-5.82;-4.44;-2.23;0.04;0.01
06:56:23 م;0.58;-8.54;-5.76;-1.34;0.32;0.01
06:56:23 م;2.35;-13.47;-2.3;4.14;0.3;0
06:56:23 م;3.59;-12.35;-0.51;4.69;0.51;0.01
06:56:23 م;4.07;-12.39;4.44;8.73;1.25;0
06:56:23 م;-0.76;3.7;-6.46;8.73;0.31;0
06:56:23 م;-1.48;10.32;-8.51;1.18;-0.08;0.01
06:56:23 م;0.08;9.94;-3.5;-2.34;0.58;0.02
06:56:23 م;1.67;7.13;3.46;-5.8;-0.56;0.02
06:56:24 م;0.96;8.66;-2.75;-3.75;1.28;0.01
06:56:24 م;7.96;-7.97;3.69;-8.73;-1.51;0.03
06:56:24 م;2.37;-17.74;1.6;-7.2;-1.2;0.02
06:56:24 م;1.61;-10.59;-2.5;-1.65;0.22;0.01
06:56:24 م;1.97;-10.2;-3.48;1.89;-0.57;0.01
06:56:24 م;4.49;-9.39;-3.33;7.66;0.48;0.01
06:56:24 م;5.45;-10.44;6.51;8.73;0.98;0
06:56:24 م;0.67;5.58;-1.46;8.73;-0.04;0
06:56:24 م;-3;9.56;-5.12;3.36;-0.27;0
06:56:24 م;-0.1;9.41;-3.66;-0.08;-0.05;0.01
06:56:25 م;-0.23;10.22;-9.88;-4.32;0.75;0.02
06:56:25 م;1.81;-0.31;-3.16;-8.73;-2.1;0.03
06:56:25 م;0.58;-19.42;3.89;-8.73;-1.61;0.02
06:56:25 م;0.22;-9.51;-1.08;-3.41;-0.24;0.02
06:56:25 م;-0.07;-9.01;-4.71;-2.18;-0.73;0.01
06:56:25 م;1.47;-11.38;-7.86;1.62;-0.52;0.01
06:56:25 م;3.62;-13.78;-4.28;8.73;1.41;0
06:56:25 م;4.08;-9.5;1.72;8.73;1.4;0
06:56:25 م;-1.17;6.54;-0.81;8.73;1;0
06:56:26 م;-1.78;10.55;-1.61;3.88;0.12;0.01
06:56:26 م;-0.29;9.77;-3.11;0.92;0.26;0.01
06:56:26 م;-0.95;9.74;-6.3;-1.37;-0.07;0.02
06:56:26 م;-1.44;5.4;-8.35;-8.73;-0.17;0.03
06:56:26 م;2.77;-16.16;3.26;-8.73;-0.1;0.02
06:56:26 م;1.84;-13;-1.07;-1.73;-0.64;0.01
06:56:26 م;1.62;-8.37;-3.08;-1.53;-0.31;0.01
06:56:26 م;1.74;-9.85;-3.49;0.93;-0.06;0.01
06:56:26 م;4.9;-18.26;-3.01;8.73;1.23;0
06:56:26 م;4.41;-8.54;-3.69;8.73;1.17;-0.01
06:56:27 م;-5.59;11.33;-12.89;5.25;1.24;-0.01
06:56:27 م;-0.17;10.08;-0.7;1.11;-0.08;0.02
06:56:27 م;0.72;10.37;-1.99;0.41;0.14;0.01
06:56:27 م;-1.44;10.36;-3.53;-1.36;-0.19;0.02
06:56:27 م;0.25;5.58;1.5;-8.73;-1.76;0.04
06:56:27 م;1.47;-4.23;5.5;-8.73;0.12;0.02
06:56:27 م;2.4;-10.46;1.81;-6.7;-0.77;0.02
06:56:27 م;1.71;-10.95;-2.55;-5.72;1.26;0.01
06:56:27 م;0.7;-9.25;-5.18;-2.55;-0.45;0.01
06:56:28 م;0.75;-12.52;-7.79;2.47;-0.3;0.01
06:56:28 م;2.54;-12.02;-4.82;8.73;1.8;0.01
06:56:28 م;0.27;-3.4;2.95;8.73;0.59;0
06:56:28 م;1.07;8.11;0.07;6.12;-0.39;0.01
06:56:28 م;0.92;10.38;-0.87;2.06;-0.74;0.01
06:56:28 م;2.68;9.81;-0.69;0.72;-0.57;0.02
06:56:28 م;0.82;9.86;-3.59;-1.41;0.53;0.01
06:56:28 م;-2.23;0.5;-4.97;-8.73;0.26;0.02
06:56:28 م;3.74;-8.24;11.54;-4.73;-0.02;0.02
06:56:28 م;4.14;-6.06;0.96;-5.46;-0.79;0.02
06:56:29 م;2.76;-13.08;0.13;-6.08;-0.07;0.02
06:56:29 م;2.25;-11.49;-3.69;-1.51;-0.53;0.01
06:56:29 م;3.62;-14.71;-3.33;5.82;-0.19;0.01
06:56:29 م;4.42;-15.15;4.82;8.73;0.88;0
06:56:29 م;0.39;3.21;2.28;8.73;0.41;0
06:56:29 م;1.46;9.7;-2.04;4.68;-2.3;0.02
06:56:29 م;-1.05;9.07;-3.7;0.28;0.51;0
06:56:29 م;1.85;10.12;-2.85;-0.59;0.14;0.02
06:56:29 م;1.68;9.21;-4.03;-5.44;0.82;0.02
06:56:30 م;0.79;0.76;-0.7;-8.73;-0.58;0.03
06:56:30 م;0.56;-17.77;4.45;-8.73;0.09;0.02
06:56:30 م;1.81;-3.54;-1.75;-2.57;-0.53;0.01
06:56:30 م;2.92;-9.45;-2.78;-0.31;0.15;0.01
06:56:30 م;1.8;-10.94;0.45;2.18;-0.8;0
06:56:30 م;3.23;-11.43;1.98;8.73;1.95;-0.01
06:56:30 م;0.23;4.59;6.97;8.17;0.21;0
06:56:30 م;1.39;8.83;-3.89;3.95;-1.88;0.02
06:56:30 م;1.19;9.63;-4.44;0.84;0.02;0
06:56:31 م;0.46;10.47;-3.01;-0.52;0.1;0.01
06:56:31 م;0.49;9.18;-4.78;-4.72;0.63;0.02
06:56:31 م;7.98;-3.39;13.65;-8.73;-1.8;0.03
06:56:31 م;1.63;-7.76;1.81;-8.73;-0.33;0.02
06:56:31 م;2.65;-9.94;1.28;-2.94;-0.35;0.01
06:56:31 م;0.81;-9.45;-2.2;-2.58;-0.42;0.01
06:56:31 م;0.76;-11.17;-4.42;-0.23;-0.35;0.01
06:56:31 م;3.7;-17.46;-2.24;8.73;1.2;0
06:56:31 م;0.96;-3.3;-0.13;8.73;1.19;-0.01
06:56:31 م;-4.34;6.56;-6.43;7.36;-0.63;0.01
06:56:32 م;8.71;10.07;-0.92;0.46;-0.01;0.02
06:56:32 م;1.76;9.61;-2.12;0.04;0;0.01
06:56:32 م;1.81;9.35;-1.61;-1.34;0.2;0.02
06:56:32 م;2.1;3.79;-5.04;-8.73;2.53;0.02
06:56:32 م;3.07;-8.53;3.73;-8.73;1.4;0.03
06:56:32 م;-1.41;-13.47;3.57;-2.35;0.05;0.02
06:56:32 م;0.16;-11.08;-0.18;-3.94;0.73;0.01
06:56:32 م;0.68;-11.33;-1.24;0.93;-0.88;0.01
06:56:32 م;2.3;-14.54;2.96;3.92;-0.68;0
06:56:33 م;3.28;-7.79;3.74;8.73;0.55;0
06:56:33 م;4.99;4.51;0.95;7.98;-1.8;0
06:56:33 م;-0.16;9.78;-2.83;3.3;-0.01;0
06:56:33 م;-2.28;10.08;-3.99;0.92;0.5;0.01
06:56:33 م;1.3;10.31;-4.27;-1.53;0.61;0.02
06:56:33 م;2.67;5.16;1.71;-7.39;-0.87;0.04
06:56:33 م;2.59;-5.6;8.55;-8.73;-1.06;0.03
06:56:33 م;1.25;-6.27;3.8;-5.91;0.31;0.02
06:56:33 م;0.97;-10.28;1.1;-4.83;-0.63;0.02
06:56:33 م;1.86;-9.21;-3.15;-2.01;-0.21;0.01
06:56:34 م;3.62;-14.23;-0.35;4.29;0.19;0
06:56:34 م;1.58;-9.62;1.45;8.73;0.99;0.01
06:56:34 م;2.72;-0.65;3;8.73;1.1;-0.01
06:56:34 م;-0.13;8.94;-3.99;4.93;0.03;0
06:56:34 م;1.66;10.02;2.21;0.52;-0.19;0.01
06:56:34 م;0.75;9.53;1.99;-1.03;0.35;0.01
06:56:34 م;0.41;9.02;0.64;-4.79;0.49;0.02
06:56:34 م;1.97;5.49;-0.29;-7.06;0.28;0.02
06:56:34 م;3.57;-12.11;5.05;-8.73;0.35;0.03
06:56:35 م;3.53;-14.61;0.46;-4.72;-0.78;0.02
06:56:35 م;1.27;-8.47;-3.44;-2.62;-0.38;0.02
06:56:35 م;0.94;-10.39;-5.71;0.24;-0.05;0.01
06:56:35 م;3.6;-17.53;-1.59;8.73;1.15;0
06:56:35 م;2.71;-5.69;2.99;8.73;0.3;0
06:56:35 م;-3.14;8.53;-5.06;4.7;-0.17;0
06:56:35 م;3.52;9.75;-4.2;0.83;0.48;0
06:56:35 م;0.42;9.87;-2.66;-0.99;-0.21;0.01
06:56:35 م;1.5;10.15;0.82;1.32;-0.31;0.01
06:56:35 م;-1.35;10.2;-9.09;0.17;0.61;0.01
06:56:36 م;-4.97;-7.61;-14.99;-8.73;0.04;0.01
06:56:36 م;0.74;-32.2;5.67;-8.73;-4.42;0.02
06:56:36 م;0.38;-8.71;-4.83;-4.84;-0.63;0.01
06:56:36 م;-0.14;-9.61;-6.01;-1.7;-0.22;0.01
06:56:36 م;0.8;-12.83;-4.7;5.2;0.37;0.01
06:56:36 م;3.94;-17.65;-2.4;8.73;2.51;-0.01
06:56:36 م;1.7;4.09;-0.64;8.73;1.13;-0.01
06:56:36 م;-1.8;8.76;-7.86;3.56;-1.22;0.02
06:56:36 م;1.05;9.9;-3.89;-0.35;-0.41;0.02
06:56:37 م;1.81;10.43;-3.75;-1.16;0.49;0.01
06:56:37 م;3.62;9.92;1.28;-2.14;-0.07;0.01
06:56:37 م;-2.01;4.73;3.94;-7.77;-1.14;0.02
06:56:37 م;0.16;-4.21;1.3;-8.73;0.87;0.02
06:56:37 م;1.69;-16.34;2.21;-7.61;-1.59;0.03
06:56:37 م;-0.06;-7.7;-5.64;-3.18;-0.39;0.02
06:56:37 م;0.82;-7.23;-9.17;-0.88;-0.11;0.01
06:56:37 م;1.55;-12.93;-5.12;6.58;0.5;0
06:56:37 م;1.62;-10.81;2.21;8.73;1.06;0
06:56:37 م;-0.15;0.34;4.15;8.73;1;0
06:56:38 م;0.56;7.81;-1.46;5.22;0.45;0
06:56:38 م;5.56;10.38;-1.52;1.18;-1.08;0.02
06:56:38 م;-0.22;9.55;-4.63;-2.46;0.53;0.01
06:56:38 م;-1.78;-0.97;0.89;-8.73;-0.36;0.03
06:56:38 م;-2.99;-23.92;11.18;-8.73;2.2;0.01
06:56:38 م;-0.05;-8.58;-0.6;-4.18;1.38;0.02
06:56:38 م;-0.72;-8.61;-2.43;-2.6;-0.59;0.01
06:56:38 م;1.42;-11.68;-7.36;2.15;-0.47;0
06:56:38 م;6.7;-16.56;-0.59;8.73;2.11;-0.02
06:56:39 م;0.83;-0.26;-2.62;8.73;-0.29;0.01
06:56:39 م;2.31;8.43;0;4.72;-0.85;0
06:56:39 م;3.17;8.9;-1.79;1.53;0.23;0
06:56:39 م;1.35;10.04;-3.91;0.63;-0.16;0.01
06:56:39 م;-0.41;10.35;-4.59;-2.45;0.55;0.02
06:56:39 م;-0.44;3.82;-2.25;-8.73;2.28;0.03
06:56:39 م;3.31;-13.93;7.76;-8.73;-0.01;0.03
06:56:39 م;1.71;-8.24;0.72;-2.78;-0.2;0.01
06:56:39 م;2.87;-8.27;-2.78;-3.58;-0.42;0.02
06:56:39 م;1.24;-10.19;-4.55;-1.22;0.19;0.01
06:56:40 م;1.46;-9.65;-2.81;4.18;0.46;0
06:56:40 م;3.15;-13.66;3.95;8.73;1.42;0.01
06:56:40 م;0.85;-1.13;6.63;8.73;1.2;-0.01
06:56:40 م;-2.24;7.7;-2.66;5.72;-1.26;0.01
06:56:40 م;8.66;10.01;-1.07;1.23;-0.42;0.01
06:56:40 م;1.05;9.57;-5.51;-0.28;0.18;0.01
06:56:40 م;0.16;9.14;-0.21;-5.26;0.11;0.03
06:56:40 م;5.31;2.69;6.53;-5.82;0.84;0.03
06:56:40 م;1.2;-5.5;4.12;-8.39;0.46;0.02
06:56:41 م;1.8;-12.12;3.17;-6.4;-0.64;0.03
06:56:41 م;1.41;-6.95;-3.28;-5.57;-0.67;0.01
06:56:41 م;2.26;-9.05;-7.23;-1.09;-0.06;0.01
06:56:41 م;2.38;-10.55;-3.95;4.67;0.3;0
06:56:41 م;5.96;-12.38;-1.29;8.73;1.77;0
06:56:41 م;3.49;-1.52;2.26;8.73;0.21;0
06:56:41 م;-0.29;6.25;2.01;6.23;-0.63;0
06:56:41 م;2.42;10.24;-1.3;2.13;-0.25;0.01
06:56:41 م;1.04;9.35;-2.45;0.26;0.04;0.01
06:56:42 م;2;9.77;-5.13;-3.25;0.52;0.02
06:56:42 م;0.68;3.72;0.89;-8.73;-0.44;0.04
06:56:42 م;0.98;-11.35;3.48;-8.73;3.88;0.01
06:56:42 م;1.75;-18.47;1.67;-8.7;0.01;0.02
06:56:42 م;1.76;-8.6;-2.33;-3.58;-0.38;0.01
06:56:42 م;1.98;-9.38;-6.69;0.63;-0.22;0.01
06:56:42 م;5.38;-12.17;-3.72;8.73;2.76;-0.01
06:56:42 م;2.53;-5.19;-3.61;8.73;1.43;-0.01
06:56:42 م;-2.56;7.96;-0.01;5.52;-1.06;0.01
06:56:42 م;1.44;9.8;2.84;1.11;0.42;0.01
06:56:43 م;2.9;9.94;-0.05;0.93;0.48;0.01
06:56:43 م;3.05;9.44;-1.64;-0.1;0.32;0.02
06:56:43 م;1.81;8.35;-0.03;-4.27;0.64;0.02
06:56:43 م;0.6;3.46;-1.22;-8.73;1.49;0.02
06:56:43 م;4.25;-6.85;6.61;-8.36;0.5;0.03
06:56:43 م;-1.46;-14.13;3.1;-8.69;1.55;0.02
06:56:43 م;0.12;-10.4;-2.71;-2.81;-0.2;0.01
06:56:43 م;0.59;-11.4;-4.19;0.71;-1.23;0.01
06:56:43 م;1.49;-12.3;-1.5;3.4;-0.32;0.01
06:56:44 م;1.58;-15.03;5.77;8.73;-0.19;0
06:56:44 م;0.1;3.7;-3.6;8.73;-1.7;0
06:56:44 م;2.26;8.27;-1.6;2.51;0.02;0
06:56:44 م;1.3;10.18;-0.06;0.26;0.06;0.01
06:56:44 م;0.83;10.01;-1.02;-2.68;0.5;0.01
06:56:44 م;-2.54;-0.54;1.74;-8.73;0.86;0.02
06:56:44 م;4.2;-12.55;5.23;-8.73;0.57;0.04
06:56:44 م;0.37;-11.15;-1.17;-4.52;0.16;0.01
06:56:44 م;1.12;-9.99;-5.33;-1.59;-0.28;0.01
06:56:44 م;-0.25;-12.04;-4.93;0.62;0.1;0.01
06:56:45 م;0.48;-12.44;-2.72;4.92;-1.36;0.01
06:56:45 م;0.94;-12.25;2.96;8.73;0.25;0
06:56:45 م;-0.5;-5.62;0.59;8.73;-1.29;0
06:56:45 م;3.39;8.84;-0.28;3.52;-0.5;0
06:56:45 م;-0.7;10.49;-0.3;0.91;-0.16;0.01
06:56:45 م;1.24;10.17;0.21;-0.51;0.14;0.01
06:56:45 م;0.4;9.83;0.7;-2.57;0.16;0.02
06:56:45 م;-0.23;3.13;2.92;-8.73;0.61;0.02
06:56:45 م;2.07;-8.87;4.5;-8.73;-0.67;0.02
06:56:46 م;-1.34;-12.11;1.62;-8.27;1.32;0.01
06:56:46 م;0.47;-10.27;-4.67;-4.09;0.42;0.01
06:56:46 م;0.47;-11.51;-5.95;-0.24;-0.18;0.01
06:56:46 م;-0.26;-14.19;-3.3;8.03;-2.2;0.01
06:56:46 م;0.02;-13.09;4.67;8.73;0.13;0
06:56:46 م;-1.01;0.18;3.99;8.73;-1.88;0
06:56:46 م;0.9;8.54;2.06;2.2;-0.38;0
06:56:46 م;-0.36;9.62;0.91;0.84;-0.21;0.01
06:56:46 م;0.81;10.12;-0.82;-0.42;0;0.01
06:56:46 م;0.82;10.18;0.13;-1.57;0.15;0.02
06:56:47 م;0.04;6.93;0.54;-7.79;0.73;0.02
06:56:47 م;2.01;0.43;-0.08;-8.73;0.68;0.03
06:56:47 م;3.55;-14.4;3.41;-8.44;-0.24;0.04
06:56:47 م;0.97;-8.95;-3.51;-2.69;-0.2;0.01
06:56:47 م;1.76;-12.29;-5.23;-0.41;0.14;0.02
06:56:47 م;-0.23;-11.7;-3.61;3.51;0.43;0.01
06:56:47 م;0.61;-11.07;1.25;5.34;-0.2;0.01
06:56:47 م;1.25;-8.23;4.4;8.73;0.26;0
06:56:47 م;0.39;4.73;-2.77;8.18;-0.59;0.01
06:56:48 م;1;9.23;0.62;2.52;-0.25;0.01
06:56:48 م;1.17;10.7;1.41;0.49;-0.17;0.01
06:56:48 م;0.45;9.97;4.42;-1.29;-0.23;0.02
06:56:48 م;0.95;6.35;3.52;-5.75;0.34;0.02
06:56:48 م;-1.24;1.4;5.65;-6.25;-0.34;0.03
06:56:48 م;-0.83;-7.06;-0.9;-8.73;-0.09;0.02
06:56:48 م;0.68;-16.12;-3.71;-8.34;2.31;0.02
06:56:48 م;0.37;-12.38;-7.46;-2.01;-0.85;0.01
06:56:48 م;0.98;-12.47;-5.85;4.4;-1.33;0.02
06:56:48 م;-0.37;-13.87;0.38;8.37;0.16;0
06:56:49 م;-0.87;-7.28;-3.11;8.73;-1.73;0
06:56:49 م;3.79;7.87;-2.36;4.25;-0.53;-0.01
06:56:49 م;-1.18;9.22;-0.71;1.56;-0.12;0.01
06:56:49 م;-0.44;10.41;-2.74;0.23;0.04;0.01
06:56:49 م;-1.3;10.97;-1.41;-2.08;0.22;0.02
06:56:49 م;-0.23;8.65;-0.89;-6.94;0.52;0.02
06:56:49 م;0.25;2.19;1.02;-8.73;0.28;0.03
06:56:49 م;1.8;-12.12;0.78;-8.73;1.34;0.03
06:56:49 م;1.01;-10.49;-4.33;-2.75;0.12;0.01
06:56:50 م;0.32;-10.72;-6.58;-2.13;-0.03;0.01
06:56:50 م;0.52;-10.92;-6.53;1.99;-0.05;0.01
06:56:50 م;1.14;-16.37;-1.71;8.73;-1.1;0.01
06:56:50 م;-1.5;-9.14;5.14;8.73;-0.01;0.01
06:56:50 م;1.61;7.65;-4.92;5.97;-0.59;0
06:56:50 م;0.11;9.73;-4.95;1.82;0.58;0
06:56:50 م;0.31;10.41;-3.04;0.33;0.32;0.01
06:56:50 م;-1.05;10.42;-1.28;-2.76;0.07;0.01
06:56:50 م;-1.85;6.32;1.5;-8.73;0.74;0.02
06:56:50 م;1.48;1.58;-0.82;-8.73;0.61;0.02
06:56:51 م;-0.05;-14.96;1.38;-8.73;0.48;0.03
06:56:51 م;1.24;-6.68;-5.62;-2.11;-0.78;0.01
06:56:51 م;-0.17;-8.32;-6.87;-0.35;0.41;0.01
06:56:51 م;-0.29;-12.14;-5.88;2.81;0.12;0.01
06:56:51 م;0.72;-12.13;-3.63;5.82;-0.91;0.01
06:56:51 م;0.56;-13.18;5.78;8.73;0.47;0
06:56:51 م;0.74;-1.98;4.77;8.73;-0.66;0.01
06:56:51 م;-2.96;8.18;1.92;3.12;-0.03;0
06:56:51 م;-2.68;9.81;2.48;0.62;0.04;0.01
06:56:52 م;-1.41;10.55;0.23;-0.19;-0.29;0.01
06:56:52 م;-1.28;9.51;-4.72;-6.12;0.63;0.02
06:56:52 م;-0.53;-6.16;-1.39;-8.73;-2;0.02
06:56:52 م;-1.3;-15.54;6.29;-7.95;0.45;0.02
06:56:52 م;0.68;-8.03;-2.81;-2.61;0.14;0.01
06:56:52 م;-0.1;-12.07;-3.21;-0.35;-0.19;0.01
06:56:52 م;1.57;-17.34;1.98;5.76;0.27;0
06:56:52 م;-0.15;-13.29;7.46;8.73;-0.37;0
06:56:52 م;0.59;3.34;2.46;7.96;-0.81;0
06:56:52 م;0.84;7.96;4.09;3.82;-0.46;0
06:56:53 م;-1.25;9.14;-1.16;1.64;-0.05;0.01
06:56:53 م;-1.8;10.59;-4.78;0.1;-0.07;0.01
06:56:53 م;-0.62;10.18;-1.01;-1.17;-0.29;0.02
06:56:53 م;0.84;8.4;4.13;-1.07;-0.26;0.02
06:56:53 م;-0.54;8.22;4.62;-1.69;0.05;0.02
06:56:53 م;-0.67;0.55;3.93;-8.73;-0.91;0.03
06:56:53 م;3.68;-13.71;2.9;-8.73;-0.08;0.03
06:56:53 م;0.47;-12.37;-2.57;-4.85;1.32;0.01
06:56:53 م;2.06;-13.01;-4.64;-0.66;-0.36;0.01
06:56:54 م;1.3;-10.69;-3.96;3.33;-0.38;0.01
06:56:54 م;0.87;-14.62;4.27;5.99;0.27;0
06:56:54 م;0.11;-5.11;2.76;8.73;-0.27;0
06:56:54 م;-0.67;4.3;5.46;5.37;-0.46;0.01
06:56:54 م;2.07;8.48;3.77;2.05;-0.36;0.01
06:56:54 م;1.44;9.92;0.62;0.27;-0.38;0.01
06:56:54 م;1.76;9.65;-1.48;-1.75;0.23;0.01
06:56:54 م;1.35;6.2;0.33;-6.51;1.22;0.02
06:56:54 م;1.22;-6.48;5.94;-8.73;-0.3;0.03
06:56:55 م;2.02;-10.99;3.23;-8.55;2.19;0.02
06:56:55 م;-0.1;-10.56;-2.25;-3.96;0.16;0.01
06:56:55 م;0.27;-11.89;-3.88;2.86;-0.69;0.01
06:56:55 م;0.53;-15.12;0.93;8.32;0.51;0.01
06:56:55 م;0.81;-7.42;5.67;8.73;-0.84;0.01
06:56:55 م;1.22;2.92;4.79;7.14;-0.53;0
06:56:55 م;0.58;7.61;3.05;3.28;-0.72;0.01
06:56:55 م;-1.12;9.53;-0.58;0.87;-0.01;0.01
06:56:55 م;0.31;10.49;-1.73;0.25;0.1;0.01
06:56:55 م;-0.66;10.23;-0.34;-0.35;-0.09;0.01
06:56:56 م;-0.37;10.43;-3.2;-3.29;0.43;0.02
06:56:56 م;-2.51;-2.09;-0.81;-8.73;-1.12;0.03
06:56:56 م;-1.03;-16.25;2.18;-8.73;0.68;0.02
06:56:56 م;2.08;-11.6;-3.87;-2.49;-0.29;0.01
06:56:56 م;-0.02;-11.53;-4.22;-0.71;0.18;0.01
06:56:56 م;0.1;-12.04;-2.85;4.41;-0.5;0.01
06:56:56 م;0.54;-9.15;-0.85;3.42;0.25;0.01
06:56:56 م;0.96;-16.42;6.11;8.73;1.39;0
06:56:56 م;0.23;4.12;-5.82;8.73;-0.54;0
06:56:57 م;-0.81;9.66;-2.79;2.64;-0.26;0.01
06:56:57 م;-0.81;10.43;-2.31;0.43;-0.05;0.01
06:56:57 م;-0.84;10.84;-3.76;-3.51;0.44;0.02
06:56:57 م;-2.43;-3.41;2.19;-8.73;-1.25;0.03
06:56:57 م;3.14;-12.19;4.91;-8.73;3.16;0.03
06:56:57 م;0.97;-10.66;-1.17;-5.57;1.25;0.01
06:56:57 م;-0.4;-11.11;-4.39;-1.43;-0.22;0.01
06:56:57 م;0.83;-13;-2.91;5.24;-1.24;0.01
06:56:57 م;1.19;-13.5;2.94;8.73;1;0
06:56:57 م;-0.53;0;-1.31;8.73;-0.42;0
06:56:58 م;1.41;8.55;-1.78;3.86;-0.54;0
06:56:58 م;-1.35;9.99;-3.33;1.14;-0.06;0.01
06:56:58 م;-1.55;10.56;-5.38;-0.78;0.13;0.01
06:56:58 م;-1.54;9.23;-8.16;-8.73;1.04;0.03
06:56:58 م;2.97;-10.74;-0.74;-8.73;-3.11;0.05
06:56:58 م;-2.26;-20.16;3.34;-8.73;0.33;0
06:56:58 م;-0.47;-11.54;-5.68;-2.26;-0.6;0.01
06:56:58 م;0.25;-13.43;-4.91;2.08;-1.1;0.01
06:56:58 م;0.15;-12.84;-1.39;7.37;0.11;0
06:56:59 م;0.26;-8.86;4.91;8.38;-0.66;0
06:56:59 م;2.34;0.5;3.77;8.15;-1.14;0
06:56:59 م;0.31;6.9;6.89;6.02;-1.37;0.01
06:56:59 م;2.92;9.98;-0.3;4.6;-0.15;0
06:56:59 م;1.34;10.07;-4.68;2.25;-0.45;0.01
06:56:59 م;-2.53;9.59;-7.41;-2.74;0.11;0.01
06:56:59 م;-3.72;-7.91;-10.49;-8.73;-1.64;0.03
06:56:59 م;-4.26;-31.07;4.19;-8.73;5.08;0
06:56:59 م;-0.59;-9.29;-4.05;-5.78;0.71;0.01
06:56:59 م;1.12;-11.29;-4.08;3.76;0.14;0.02
06:57:00 م;1.11;-13.48;2.32;8.73;0.54;0
06:57:00 م;-1.01;-5.35;9.14;8.73;0.3;0
06:57:00 م;-0.15;3.09;2.46;8.73;-0.79;0
06:57:00 م;-1.62;9.53;-2.91;2.49;0.2;-0.01
06:57:00 م;-1.62;10.11;-2.69;0.47;-0.27;0.01
06:57:00 م;-2.14;11.01;-2.49;-0.27;0.09;0.01
06:57:00 م;-1.86;9.96;-0.6;-2.43;0.65;0.01
06:57:00 م;-1.87;6.95;4.27;-5.96;-0.27;0.03
06:57:00 م;0.97;-1.36;3.36;-8.73;-0.1;0.02
06:57:01 م;-2.96;-12.67;-1.03;-8.73;0.88;0.01
06:57:01 م;-0.32;-10.97;-6.13;-3.12;0.08;0.01
06:57:01 م;-0.6;-7.5;-9.52;0.62;-0.28;0.01
06:57:01 م;1.98;-18.48;-3.41;6.45;-0.1;-0.01
06:57:01 م;1.75;-21.98;-1.21;8.73;0.7;0
06:57:01 م;-3.66;1.79;-9.19;8.73;-0.11;-0.01
06:57:01 م;-1.3;7.93;-4.74;1.75;0.09;0
06:57:01 م;-3.98;7.85;-5.44;-1.15;-0.28;0.01
06:57:01 م;-2.52;9.54;-6.94;-1.42;0.53;0.01
06:57:02 م;-1;9.47;-8.95;-6.3;1.03;0.02
06:57:02 م;2.61;2;2.38;-8.73;-1.78;0.04
06:57:02 م;-2.14;-15.36;2.32;-8.73;0.05;0.02
06:57:02 م;-0.26;-11.7;-3.47;-3.77;-1.64;0.02
06:57:02 م;0.05;-7.96;-8.24;-1.38;-0.93;0.01
06:57:02 م;-0.43;-7.66;-8.52;-1.17;-0.11;0.01
06:57:02 م;1.11;-12.22;-3.82;4.58;0.52;0
06:57:02 م;1.25;-15.39;-1;8.73;2.59;0.01
06:57:02 م;-6.01;-3.12;3.99;8.73;1.56;0
06:57:02 م;-0.71;9.54;-0.23;2.92;0.34;0.01
06:57:03 م;0.35;10.02;-2.22;1.05;0.33;0.01
06:57:03 م;0.77;10.23;-3.48;-0.28;-0.04;0.01
06:57:03 م;-1.78;9.53;-3.17;-6.15;0.52;0.02
06:57:03 م;2.3;-0.78;3.65;-8.73;-0.15;0.02
06:57:03 م;-0.97;-11.41;1.65;-8.73;-0.67;0.02
06:57:03 م;1.37;-9.05;-0.03;-4.03;-1.67;0.02
06:57:03 م;0.56;-7.9;-6;-2.18;-0.31;0.01
06:57:03 م;1.33;-15.35;-1.18;6.49;0.22;0
06:57:03 م;3.01;-13.58;5.49;8.73;2.28;0
06:57:03 م;-2.31;5.6;-2.16;7.12;0.72;0
06:57:04 م;1.29;9.32;-2.58;2.62;-0.31;0.02
06:57:04 م;0.47;9.42;-3.59;1.81;-0.26;0.01
06:57:04 م;-1.47;10.35;-4.07;0.31;-0.09;0.01
06:57:04 م;-0.36;11.04;-3.88;-1.22;0.17;0.01
06:57:04 م;-1.24;7.61;2.7;-6.14;-0.13;0.02
06:57:04 م;-1.68;3.49;1.3;-8.56;1.23;0.02
06:57:04 م;2.65;-6.19;7.18;-8.28;1.09;0.02
06:57:04 م;0.17;-14.04;-0.46;-8.73;-0.58;0.01
06:57:04 م;-0.8;-9.59;-4.98;-3.1;-1.39;0.02
06:57:05 م;0.94;-12.74;-3.06;4.36;0.29;0.01
06:57:05 م;-0.51;-14.66;-1.58;8.73;3.38;0.01
06:57:05 م;1.23;1.24;7.22;8.73;0.68;0
06:57:05 م;-0.55;5.91;-2.25;5.76;-2.31;0.03
06:57:05 م;1.42;10.13;-1.33;1.76;-0.08;0
06:57:05 م;-1.46;10.08;-3.07;0.34;-0.09;0.01
06:57:05 م;-2.17;10.38;-3.51;-1.88;0.51;0.01
06:57:05 م;-1.18;6.67;0.51;-7.43;1.49;0.01
06:57:05 م;2.48;-7.91;0.23;-8.73;-2.73;0.03
06:57:06 م;0.43;-18.31;0.15;-8.73;-0.03;0.01
06:57:06 م;-0.28;-12.94;-5.24;-4.33;-0.4;0.01
06:57:06 م;0.79;-10.6;-4.98;1.54;-0.59;0.01
06:57:06 م;1.06;-13.81;-0.95;8.63;0.78;0.01
06:57:06 م;0.92;-9.28;6.26;8.73;-0.82;0.01
06:57:06 م;1.66;-0.34;7.21;8.73;-1.42;0
06:57:06 م;2.47;8.01;-0.06;4.68;-0.47;0
06:57:06 م;0.46;9.36;-3.59;1.72;-0.25;0
06:57:06 م;1.05;9.96;-2.6;0.17;-0.06;0.01
06:57:06 م;-0.02;9.29;-1.89;-3.07;0.11;0.02
06:57:07 م;-0.35;3.45;-2.35;-8.73;1.2;0.02
06:57:07 م;3.88;-5.41;8.2;-7.69;0.08;0.03
06:57:07 م;0.85;-10.42;5.88;-4.76;-0.82;0.02
06:57:07 م;0.48;-15.37;-0.39;-8.73;1.9;0.01
06:57:07 م;0.92;-11.98;-5.16;-1.56;-0.46;0.01
06:57:07 م;1.62;-14.31;-3.01;5.75;-0.98;0.01
06:57:07 م;-0.72;-13.23;3.72;8.54;0.18;0.01
06:57:07 م;1.81;-8.38;5.95;8.73;-1.04;-0.01
06:57:07 م;-1.13;8;-3.04;3.14;-0.95;0
06:57:08 م;-2.03;9.53;-2.63;0.6;-0.04;0.01
06:57:08 م;0.02;11.04;0.16;-0.35;-0.02;0.01
06:57:08 م;1.3;10.51;0.66;0.75;0.04;0.01
06:57:08 م;-2.08;11.35;-2.83;-3.16;0.87;0
06:57:08 م;-2.01;-9.81;-9.6;-8.73;-3.48;0.02
06:57:08 م;-3.76;-18.06;0.88;-7.64;-1.92;0
06:57:08 م;0.99;-10.97;-7.85;-1.81;-1.28;0.01
06:57:08 م;0.97;-9.74;-9.72;-0.84;0.35;0.01
06:57:08 م;0.28;-7.15;-8.95;0.05;0.16;0.01
06:57:09 م;0.34;-9.63;-6.64;2.86;0.03;0.01
06:57:09 م;0.23;-17.53;-2.82;8.73;1.59;0.01
06:57:09 م;1.3;-13.43;-0.13;8.73;0.41;0
06:57:09 م;-0.45;8.77;-5.47;4.64;-1.01;0.01
06:57:09 م;-1.02;10.53;-2.59;-0.08;-0.09;0.01
06:57:09 م;0.88;9.83;-0.24;-0.58;-0.27;0.02
06:57:09 م;0.3;9.87;-1.92;1.79;0.53;0.01
06:57:09 م;0.22;11.22;-6.11;-1.72;0.62;0.01
06:57:09 م;-3.21;-0.62;-3.47;-8.73;-1.63;0.03
06:57:09 م;2.21;-13.85;6.69;-8.73;0.15;0.03
06:57:10 م;2.59;-8.94;-1.47;-3.36;-0.16;0.02
06:57:10 م;-0.72;-10.48;-3.14;-1.35;0.47;0.01
06:57:10 م;0.06;-9.83;-4.92;-1.15;0.08;0.01
06:57:10 م;0.49;-8.97;-5.49;-1.02;0;0.01
06:57:10 م;3.61;-28.42;-2.54;8.73;-0.26;0
06:57:10 م;-0.38;-5.6;7.89;8.73;-2.49;0.01
06:57:10 م;-0.71;6.9;-1.21;5.76;-0.32;-0.01
06:57:10 م;-0.77;9.02;-3.52;1.97;0.13;0
06:57:10 م;-1.32;9.52;-6.36;0.14;-0.34;0.01
06:57:11 م;-2.1;10.42;-2.94;-0.6;0.05;0.01
06:57:11 م;0.06;9.5;-3.51;-3.89;0.69;0.02
06:57:11 م;5.31;-4.51;-2.03;-8.73;8.1;0.02
06:57:11 م;3.35;-25.57;-1.2;-8.73;-2.11;0.03
06:57:11 م;-0.65;-10.47;-6.98;-4.3;-0.05;0.01
06:57:11 م;-0.66;-9.31;-7.32;0.95;0.06;0.01
06:57:11 م;0.4;-10.52;-4.94;4.59;0.84;0
06:57:11 م;0.85;-11.56;2.23;3.55;-0.06;0.01
06:57:11 م;0.04;-16.97;9.23;8.73;-0.11;0
06:57:11 م;1.17;4.89;-5.27;8.73;-0.89;-0.06
06:57:12 م;-2.92;9.36;-5.35;1.77;-0.06;-0.02
06:57:12 م;-2.3;9.96;-4.48;-0.69;0.26;0.01
06:57:12 م;-0.79;9.24;-3.42;-5.76;0.78;0.04
06:57:12 م;1.6;-4.07;3.61;-8.73;-2.28;0.09
06:57:12 م;-1.52;-12.03;6.04;-8.73;-0.36;0.04
06:57:12 م;-0.04;-9.59;-1.86;-3.07;0.47;0.03
06:57:12 م;0.91;-10.21;-5.93;-5;-1.36;0.01
06:57:12 م;0.97;-8.41;-7.2;-1.86;-0.52;0.02
06:57:12 م;1.86;-17.52;-4.46;8.73;0.49;-0.02
06:57:12 م;-0.3;-10.47;0.52;8.73;0.95;-0.01
06:57:13 م;0.57;-4.46;6.52;8.73;-0.81;-0.05
06:57:13 م;0.18;8.29;-2.59;2.37;-1.17;0
06:57:13 م;-1.03;10.24;-3.96;-0.59;-0.1;0.01
06:57:13 م;0.62;10.91;-5.61;-3.12;0.57;0.02
06:57:13 م;0.3;6.36;2.15;-6.69;-0.17;0.05
06:57:13 م;2.2;-13.44;0.59;-8.73;0.3;0.04
06:57:13 م;0.94;-13.79;-1.37;-4.43;-0.1;0.02
06:57:13 م;-0.23;-12.48;-4.73;0.08;0.03;0
06:57:13 م;-0.16;-8.46;-6.31;0.77;-0.31;0.01
06:57:14 م;1.19;-9.13;-5.61;-0.9;-0.22;0.01
06:57:14 م;2.78;-23.06;-1.21;8.73;2.55;0
06:57:14 م;0.64;-8.43;0.89;8.73;0.25;0
06:57:14 م;-3.27;7.09;-10.23;6.99;-0.85;0.01
06:57:14 م;1.98;9.53;-3.78;1.82;-0.37;0.01
06:57:14 م;-0.62;9.59;-5.62;-0.39;-0.5;0.02
06:57:14 م;-1.85;10.45;-5.64;-5.03;0.64;0.02
06:57:14 م;0.94;-9.63;-5.31;-8.73;-3.62;0.05
06:57:14 م;3.22;-14.16;1.03;-5.95;-2.67;0.06
06:57:14 م;1.64;-8.97;-4.85;-2.74;-1.42;0.03
06:57:15 م;1.05;-12.12;-3.25;4.11;-0.24;0.01
06:57:15 م;2.25;-14.82;3.85;8.73;0.4;-0.01
06:57:15 م;-0.1;-0.78;2.61;8.73;0.07;0
06:57:15 م;-0.75;7.12;3.79;4.98;-0.71;0.01
06:57:15 م;-0.87;9.55;-2.04;2.73;0.61;0
06:57:15 م;-0.62;10.32;-2.5;0.86;0.18;0.01
06:57:15 م;-0.33;11.18;-5.33;-2.86;0.31;0.01
06:57:15 م;-5.23;-5.93;-6.75;-8.73;0.1;0.03
06:57:15 م;-1.83;-20.95;1.54;-8.73;-0.79;0.03
06:57:16 م;-0.53;-9.28;-7.45;-3.36;0.01;0.02
06:57:16 م;0.52;-8.63;-8.25;-1.23;-0.16;0.01
06:57:16 م;0.74;-13.34;-3.16;6.26;0.28;-0.01
06:57:16 م;0.13;-8.58;-0.09;8.73;-0.61;0.01
06:57:16 م;0.81;-2.36;7.28;6.55;0.24;0
06:57:16 م;0.97;4.83;4.95;4.09;-0.38;0
06:57:16 م;2.61;8.25;4.18;4.61;-0.69;0
06:57:16 م;3.04;8.68;-0.92;3.45;0.25;-0.02
06:57:16 م;0.3;8.69;-5.03;1.23;-0.51;0
06:57:17 م;-1.06;9.24;-8.15;-0.66;0.06;0
06:57:17 م;-1.79;8.86;-12.31;-8.73;1.13;0.03
06:57:17 م;9.92;-24.51;-1.88;-8.73;-2.34;0.06
06:57:17 م;-1.18;-12.09;-4.15;-4.59;0.79;0.01
06:57:17 م;-2.4;-7.58;-7.92;-1.67;-0.55;0.01
06:57:17 م;-1.17;-9.44;-9.65;1.57;0.29;0
06:57:17 م;-0.19;-18.04;-6.03;8.73;2.34;-0.01
06:57:17 م;0.17;-11.05;2.6;8.73;-1.36;0.01
06:57:17 م;2.94;2.3;3.42;8.73;-2.52;0.01
06:57:17 م;-1.5;9.4;-1.68;2.77;-0.65;0.01
06:57:18 م;-0.48;9.5;-1.77;1.77;-0.58;0
06:57:18 م;-0.88;9.14;-9.28;-1.37;0.15;0
06:57:18 م;-3.39;1.21;-11.65;-8.73;0.7;0.02
06:57:18 م;1.94;-22.65;-0.84;-8.73;0.41;0.04
06:57:18 م;4.66;-11.55;-5.73;-1.82;-0.26;0.02
06:57:18 م;0.47;-10.39;-5.11;-0.65;-0.04;0.03
06:57:18 م;-0.45;-11.48;-4.35;2.13;-0.61;0.01
06:57:18 م;1.43;-16.58;1.13;8.73;0.02;-0.01
06:57:18 م;0.02;-5.43;5.72;8.73;-0.31;-0.01
06:57:19 م;-1.71;6.05;4.41;6.58;-0.65;-0.01
06:57:19 م;-0.97;9.49;-0.71;2.05;-0.23;0.01
06:57:19 م;-0.06;9.82;-2.9;-1.15;0.24;0.01
06:57:19 م;-1.61;5.04;-1.28;-8.73;1.36;0.02
06:57:19 م;3.49;-6.38;6.65;-8.73;-0.18;0.04
06:57:19 م;-2.05;-9.56;3.77;-3.95;-0.69;0.02
06:57:19 م;0.09;-11.64;3.35;1.04;-0.95;0.01
06:57:19 م;-0.57;-14.67;10.09;2.59;-0.7;0
06:57:19 م;-1.34;-8.82;11.69;8.73;-0.83;0
06:57:19 م;-2.83;6.56;-1.41;7.17;-0.48;-0.02
06:57:20 م;-0.58;9.38;-5.42;2.01;-0.1;0
06:57:20 م;-0.38;9.41;-4.15;-0.97;-0.02;0.02
06:57:20 م;1.07;9.92;-1.92;-0.16;-0.02;0.02
06:57:20 م;1.73;9.88;-1.37;2.39;-0.18;0
06:57:20 م;-0.1;8.99;-11.32;-0.87;0.04;0.01
06:57:20 م;-2.24;2.69;-9.32;-8.73;1;0.04
06:57:20 م;5.58;-10.63;5.51;-8.73;0.69;0.05
06:57:20 م;1.29;-11.97;-0.8;-5.81;-1.86;0.03
06:57:20 م;1.13;-11;-6.88;-5.75;-0.61;0.02
06:57:21 م;0.56;-9.89;-7.73;-1.89;-0.28;0.01
06:57:21 م;2.47;-14.54;-4.27;6.86;1.01;0
06:57:21 م;0.99;-13.21;-0.68;8.73;0.17;0
06:57:21 م;-0.52;-3.55;5.42;8.73;-0.71;0
06:57:21 م;-0.01;7.41;0.82;4.32;-0.33;0
06:57:21 م;1.25;9.64;-2.3;1.36;-0.24;0.01
06:57:21 م;-0.02;10.1;1.97;0.04;-0.16;0.01
06:57:21 م;-0.01;10.04;-1.5;-0.38;0.16;0.01
06:57:21 م;-0.71;9.11;-4.49;-5.97;1.34;0.02
06:57:21 م;2.63;-16.99;-2.09;-8.73;-0.02;0.04
06:57:22 م;0.99;-10;-3.59;-1.04;-0.27;0.01
06:57:22 م;-0.08;-10.39;-7.4;-0.94;0;0.01
06:57:22 م;0.68;-9.71;-7.03;0.63;0.03;0.01
06:57:22 م;1.88;-16.25;-1.15;7.49;-0.44;0.01
06:57:22 م;-0.78;-9.47;1.58;7.99;-0.3;0.01
06:57:22 م;0.11;-4.89;8.78;8.73;-0.58;-0.01
06:57:22 م;-1.83;5.89;4.23;3.57;-0.38;-0.01
06:57:22 م;-0.19;9.91;-0.33;0.43;0.32;-0.01
06:57:22 م;-2.23;6.17;-3.62;-8.73;0.95;0.03
06:57:23 م;2.35;-18.78;1.79;-8.73;1.63;0.04
06:57:23 م;0.93;-10.18;-3.24;-1.61;-0.66;0.02
06:57:23 م;-0.47;-8.66;-6.32;-2.25;-0.03;0.01
06:57:23 م;-0.76;-7.65;-8.28;-0.8;-0.11;0.01
06:57:23 م;1.37;-12.55;-4.95;2.27;-0.22;0
06:57:23 م;-0.34;-12.38;-4.93;8.73;1.67;0.02
06:57:23 م;1.44;-2.35;4.36;8.73;0.56;0
06:57:23 م;-1.48;5.95;-3.85;7.8;-0.23;0
06:57:23 م;0.58;9.21;-2.35;2.1;0.11;0.01
06:57:23 م;1.54;9.6;-6.55;-0.69;0.15;0.01
06:57:24 م;0.09;10.46;-6.13;-4.26;0.64;0.03
06:57:24 م;2.14;1.23;3.83;-8.73;0.1;0.05
06:57:24 م;1.42;-10.45;1.31;-8.73;2.08;0.03
06:57:24 م;-1.38;-14.81;-0.67;-4.23;-0.23;0.01
06:57:24 م;0.78;-10.48;-5.44;-1.24;-0.19;0.01
06:57:24 م;1.21;-10.05;-6.04;0.58;0.27;0.01
06:57:24 م;2.78;-14.44;-4.54;8.73;0.36;0
06:57:24 م;1.36;-4.91;3.27;8.73;0.19;-0.01
06:57:24 م;1.54;3.12;0.82;8.73;-1.07;0
06:57:25 م;-0.6;9.29;-2.8;3.63;0.76;-0.02
06:57:25 م;0.05;9.78;-6.85;0.46;0.29;0.01
06:57:25 م;-1.5;9.24;-0.55;-6.46;0.32;0.03
06:57:25 م;-0.87;-2.84;-4.78;-8.73;-1.04;0.04
06:57:25 م;-1.63;-16.16;-1.52;-8.73;-1.56;0.04
06:57:25 م;0.67;-7.71;-6.27;-3.57;-0.14;0.01
06:57:25 م;-0.81;-6.44;-9.26;-2.07;-0.25;0.02
06:57:25 م;-1.42;-5.52;-11.43;0.04;0.04;0.01
06:57:25 م;-0.14;-8.64;-7.38;3.11;0.45;0
06:57:25 م;0.72;-17.63;-4.54;8.73;2.3;0
06:57:26 م;2.5;-12.36;5.9;8.73;1.47;-0.03
06:57:26 م;-1.56;8.1;-2.37;4.83;-1.29;0.02
06:57:26 م;0.32;9.51;-3.8;0;0.87;-0.01
06:57:26 م;2.18;9.95;-1.3;-0.14;-0.2;0.02
06:57:26 م;0.87;9.96;-0.21;0.22;-0.06;0.01
06:57:26 م;1.66;9.68;0.8;0.01;-0.1;0.01
06:57:26 م;0.37;10.45;-3.3;0.05;0.27;-0.01
06:57:26 م;-2.92;5.08;-8.28;-8.73;1.12;0.02
06:57:26 م;1.83;-18.67;4.26;-8.73;0.65;0.04
06:57:27 م;0.77;-8.53;-3.24;-3.14;0.96;0.01
06:57:27 م;0.51;-11.36;-6.35;-3.28;-0.31;0.01
06:57:27 م;0.56;-11.98;-5.33;1.93;-0.01;0
06:57:27 م;1.55;-11.79;-3.03;8.64;1.66;-0.01
06:57:27 م;-0.5;-11.18;6.34;8.73;1.22;-0.02
06:57:27 م;0.64;-0.18;4.97;8.73;-0.83;0
06:57:27 م;1.17;7.78;-1.65;4.95;-1.07;-0.01
06:57:27 م;-3.09;9.95;-8.34;0.6;0.5;0
06:57:27 م;1.01;10.73;-1.33;-1;0.19;0.03
06:57:27 م;0.01;9.9;0.07;-6.28;0.48;0.04
06:57:28 م;4.68;-6.11;0.42;-8.73;-0.02;0.05
06:57:28 م;3.53;-14.61;2.98;-6.07;-1.72;0.05
06:57:28 م;1.32;-10.54;-3.16;-2.69;-0.83;0.01
06:57:28 م;1.61;-10.09;-5.5;-0.04;-0.01;0.01
06:57:28 م;1.89;-13.59;-1.93;7.27;0.78;0
06:57:28 م;1.8;-5.34;3.92;6.56;0.08;-0.01
06:57:28 م;-1.77;-2.84;8.46;7.12;0.41;0.01
06:57:28 م;0.32;3.93;5.2;8.16;-0.18;0.01
06:57:28 م;0.12;9.61;-0.36;2.37;0.86;-0.02
06:57:29 م;-1.75;9.41;-3.58;0.1;-0.61;0.03
06:57:29 م;1.25;11.23;1.32;-0.76;-0.5;0.05
06:57:29 م;3.39;7.42;0.75;-6.25;0.74;0.02
06:57:29 م;2.65;5.4;4.66;-5.15;2.02;0.01
06:57:29 م;2.47;1.4;5.56;-3.18;0.04;0.02
06:57:29 م;1.01;-11.44;7.45;-8.09;-0.5;0.01
06:57:29 م;0.15;-12.9;0.94;-4.13;-0.48;0.02
06:57:29 م;0.11;-9.17;-2.35;-2.76;-0.46;0.02
06:57:29 م;0.68;-9.89;-5.34;-0.32;-0.51;0.01
06:57:30 م;2.1;-15.91;-2.74;7.76;0.73;-0.02
06:57:30 م;1.81;-10.48;4.8;8.48;-0.01;0
06:57:30 م;0.69;-0.29;6.76;5.76;0.05;0
06:57:30 م;0.17;6.11;3.68;4.65;0.63;-0.01
06:57:30 م;-0.5;9.13;0.91;1.7;-0.54;0.02
06:57:30 م;-0.19;9.35;1;0.68;0.06;0.01
06:57:30 م;1.01;9.49;2.06;0.06;-0.04;0.02
06:57:30 م;0.65;9.59;-1.03;-3.2;0.55;0.02
06:57:30 م;2.76;-6.42;7.13;-8.73;0.39;0.02
06:57:30 م;0.06;-10.37;4.81;-6.73;0.58;0.02
06:57:31 م;-0.06;-9.58;-0.81;-4.69;-1.15;0.01
06:57:31 م;0.49;-8.56;-6.33;-0.3;-0.63;0.01
06:57:31 م;0.9;-9.26;-5.11;0.13;0.09;0.01
06:57:31 م;1.29;-10.47;-3.19;1.42;0.03;0.01
06:57:31 م;0.79;-10.54;-2.45;6.7;1.03;0
06:57:31 م;0.44;-9.89;7.24;8.68;0.36;-0.01
06:57:31 م;-0.39;-0.87;10.46;8.19;-0.77;0
06:57:31 م;-0.01;6.52;4.24;6.62;-1.01;0.02
06:57:31 م;2.5;10.05;1.67;-0.1;-1.49;0.05
06:57:32 م;0.93;9.65;-0.25;-1.73;1.16;-0.01
06:57:32 م;4.01;6.57;3.47;-5.85;0.63;0.03
06:57:32 م;0.93;-1.77;2.09;-8.73;-0.77;0.03
06:57:32 م;0.44;-15;1.95;-8.73;-0.33;0.03
06:57:32 م;0.86;-10.19;-1.87;-4.02;-0.32;0.01
06:57:32 م;0.84;-9.87;-5.61;-0.81;-0.13;0.01
06:57:32 م;1.87;-16.4;-2.73;5.52;0.54;-0.01
06:57:32 م;2.7;-10.9;3.39;5.51;-0.31;0
06:57:32 م;0.77;-1.05;4.22;7.47;0.25;0
06:57:32 م;0.99;4.71;1.79;8.01;0.75;-0.01
06:57:33 م;2.58;9.5;-0.04;4.84;-1.67;0.03
06:57:33 م;0.86;9.84;-1.61;1.1;0.24;0
06:57:33 م;2.13;10.5;-1;-1.4;0.07;0.03
06:57:33 م;1.24;5.33;0.62;-8.73;0.24;0.05
06:57:33 م;7.23;-2.87;4.98;-6.97;0.51;0.03
06:57:33 م;3.24;-9.96;1.49;-6.81;0.03;0.04
06:57:33 م;0.8;-13.52;0.74;-1.91;0.1;0.02
06:57:33 م;0.92;-10.53;-0.91;0.07;-0.14;0.01
06:57:33 م;1.15;-11.48;1.64;2.9;-0.58;0
06:57:34 م;1.79;-8.71;6.22;8.45;-0.41;-0.01
06:57:34 م;0.43;0.19;5.21;8.73;-0.72;-0.01
06:57:34 م;2.91;7.92;-0.87;4.2;-0.33;-0.03
06:57:34 م;3.28;10.2;-3.25;2.41;0.05;-0.01
06:57:34 م;-0.59;9.91;-4.97;-0.44;0.72;0.02
06:57:34 م;1.36;9.06;-1.34;-6.38;0.81;0.04
06:57:34 م;3.63;-0.18;3.39;-8.73;-0.63;0.05
06:57:34 م;2.68;-10.03;4.25;-7.03;0.77;0.04
06:57:34 م;1.5;-6.14;-1.28;-4.98;-0.32;0.04
06:57:34 م;1.55;-9.25;-3.36;-4.22;-0.09;0.02
06:57:35 م;-1.05;-10.71;-4.6;-0.87;0.13;0.01
06:57:35 م;1.84;-14.24;-3.32;7.01;1.99;0.01
06:57:35 م;-1.57;-5.09;0.71;8.73;0.93;-0.01
06:57:35 م;1.08;5.37;4.12;7.02;-0.11;0
06:57:35 م;4.16;9.2;2.2;3.07;-1.19;0.01
06:57:35 م;2.1;9.81;-4.53;1.04;0.11;-0.02
06:57:35 م;-0.48;10.37;-1.86;0.34;0.51;-0.01
06:57:35 م;-0.24;10.44;-2.56;-0.93;0.32;0.02
06:57:35 م;0.66;8.34;0.9;-7.82;0.19;0.04
06:57:36 م;3.99;-4.21;4.56;-8.73;-2.15;0.05
06:57:36 م;2.5;-8.32;3.7;-3.27;1.38;0.03
06:57:36 م;-2.06;-16.98;0.13;-8.73;-0.77;0
06:57:36 م;-0.84;-12.31;-3.28;-0.99;-0.61;0.01
06:57:36 م;0.79;-11.71;-2.79;8.52;0.67;0
06:57:36 م;1.44;-13.17;8.86;8.73;-0.38;-0.01
06:57:36 م;0.14;-1.26;11.15;8.14;-0.16;-0.01
06:57:36 م;0.64;8.15;0.11;5.39;-1.24;0
06:57:36 م;2.19;9.83;0.3;0.99;-0.38;0.01
06:57:36 م;0.04;9.67;-2.49;0.53;0.25;0.01
06:57:37 م;1.81;10.94;-2.37;-1.11;0.47;0.02
06:57:37 م;1.13;6.97;-1.77;-8.73;1.32;0.04
06:57:37 م;7.18;-9.41;5.72;-8.73;0.59;0.07
06:57:37 م;2.18;-14.05;2.54;-7.82;-1.15;0.03
06:57:37 م;0.75;-10.29;-3.49;-3.26;0.05;0
06:57:37 م;0.6;-10;-6.15;-0.74;-0.53;0.01
06:57:37 م;2.32;-15.16;-3.76;8.73;0.11;-0.01
06:57:37 م;1.9;-11.67;4.43;8.73;-1;-0.02
06:57:37 م;1.47;7.41;0.22;4.76;-1.8;-0.01
06:57:38 م;0.92;8.62;1.91;1.96;0.03;-0.01
06:57:38 م;0.61;10.17;-1.3;0.17;-0.02;0.01
06:57:38 م;0.78;10.62;-1.91;-1.67;0.5;0.02
06:57:38 م;-1.3;0.02;2.76;-8.73;0.69;0.04
06:57:38 م;3.1;-10.96;6.64;-8.73;1.24;0.05
06:57:38 م;-1.26;-6.32;-2.11;-5.83;2.86;0.01
06:57:38 م;1.92;-12.53;-4.66;-4.2;0.15;0.01
06:57:38 م;0.04;-10.85;-6.04;-1.7;0.68;0.03
06:57:38 م;-0.28;-13.2;-4.85;8.73;0.69;0
06:57:38 م;2.46;-13.26;7.08;8.73;-0.5;-0.01
06:57:39 م;-1.66;-2.91;5.09;8.73;-2.35;-0.02
06:57:39 م;1.56;6.39;0.78;4.81;-1.1;-0.02
06:57:39 م;1.34;9.57;-2.63;2.68;0.62;-0.03
06:57:39 م;0.47;10.8;-2.85;0.17;-0.07;0.01
06:57:39 م;0.42;10.15;-5.52;-1.8;0.66;0.01
06:57:39 م;-1.87;3.73;-1;-8.73;1.16;0.03
06:57:39 م;3.16;-10.1;6.39;-8.73;-0.84;0.06
06:57:39 م;1.69;-11.56;1.85;-8.12;-0.25;0.02
06:57:39 م;0.2;-10.2;-5.77;-4.46;0.04;0.01
06:57:40 م;0.65;-7.58;-9.96;-1.28;-0.41;0.01
06:57:40 م;-0.25;-9.62;-9.31;2.43;-1.03;0
06:57:40 م;2.21;-15.44;-3.7;8.38;-0.09;-0.01
06:57:40 م;-1.61;-12.66;4.24;8.73;-1.31;-0.01
06:57:40 م;0.62;4.14;1.37;8.73;-3.05;0
06:57:40 م;1.07;8.32;-2.77;2.98;-0.33;-0.02
06:57:40 م;-0.29;10.25;-2.03;1.33;-0.36;0.01
06:57:40 م;0.17;9.78;-1.87;-1.19;0.2;0.01
06:57:40 م;-0.76;6.92;1.84;-6.66;0.84;0.02
06:57:41 م;-0.85;1.3;2.57;-8.73;0.9;0.03
06:57:41 م;1.36;-8.89;4.36;-8.73;0.59;0.04
06:57:41 م;0.52;-12.5;3.02;-4.83;-0.09;0.02
06:57:41 م;0.5;-10.47;-5.14;-4.56;-0.16;0.02
06:57:41 م;-0.08;-9.41;-7.93;-3.36;0.72;0
06:57:41 م;-0.6;-9.89;-8.2;0.92;-0.64;0.01
06:57:41 م;1.43;-16.2;-4.17;8.73;-0.4;-0.01
06:57:41 م;-3.32;-14.86;6.81;8.73;-0.85;0
06:57:41 م;2.51;8.33;-4.59;5.02;-2.57;-0.01
06:57:41 م;0.64;8.96;-3.26;1.54;-0.6;-0.01
06:57:42 م;-0.69;9.34;-7.98;0.02;0.01;0.01
06:57:42 م;0.15;10.61;-6.64;-1.73;0.97;0.01
06:57:42 م;2.55;5.72;1.39;-6.16;-0.05;0.05
06:57:42 م;4.14;-2.6;5.71;-8.73;1.32;0.01
06:57:42 م;3.8;-3.67;4.64;-4.05;-0.89;0.03
06:57:42 م;0.63;-10.24;8.39;-2.65;-0.46;0.02
06:57:42 م;-0.77;-9.27;-0.53;-4.76;-0.97;0.03
06:57:42 م;0.89;-13.1;-4.37;-7.26;1.14;-0.01
06:57:42 م;0.75;-6.88;-8.5;-1.62;-0.19;0.01
06:57:43 م;-0.1;-8.91;-8.32;2.09;-0.98;0.02
06:57:43 م;0.84;-21.6;-3.57;8.73;1.02;0
06:57:43 م;-0.28;-9.65;6.04;8.73;-1.92;0.01
06:57:43 م;0.89;6.09;-1.92;6.05;-1.85;0.01
06:57:43 م;-0.34;8.1;-2.77;0.72;-0.27;0
06:57:43 م;1.06;10.8;-0.51;-0.6;-0.23;0.02
06:57:43 م;2.12;10.93;-1.03;-1.61;0.07;0.02
06:57:43 م;2.09;7.41;-2.49;-7;1.76;0.01
06:57:43 م;-1.1;-8.43;5.72;-8.73;1.17;0.02
06:57:43 م;0.58;-9.33;3.66;-6.49;-0.38;0.02
06:57:44 م;-1.11;-11.75;-2.19;-4.6;0.24;0
06:57:44 م;-0.75;-10.41;-5.56;-1.82;-0.29;0.01
06:57:44 م;-0.61;-12.21;-4.15;1.98;-0.53;0.01
06:57:44 م;-0.14;-18.76;4.19;8.73;0.91;-0.01
06:57:44 م;-2.78;-6.72;-0.19;8.73;-3.38;0.03
06:57:44 م;2.06;7.43;2.21;3.15;-0.47;-0.04
06:57:44 م;-0.55;8.99;-4.67;1.03;-0.07;0
06:57:44 م;-0.47;9.52;-3.78;-0.05;0.25;0
06:57:44 م;1.55;10.45;-1.25;-0.26;0.07;0.02
06:57:45 م;0.45;9.79;-5.92;-3.63;0.87;0.02
06:57:45 م;4.14;6.81;1.06;-6.07;1.23;0.04
06:57:45 م;-0.77;-6.45;5.21;-8.73;-0.59;0.04
06:57:45 م;2.13;-10.07;2.05;-8.73;1.4;0.05
06:57:45 م;0.13;-11.65;-4.49;-3.53;-0.49;0.02
06:57:45 م;-1.34;-13.3;-4.22;-0.51;-0.44;0.01
06:57:45 م;0.25;-18.27;4.1;5.74;-1.1;0.01
06:57:45 م;-0.85;-13.42;8.78;8.73;-1.92;-0.01
06:57:45 م;0.7;6.1;-1.94;4.18;-1.71;0.01
06:57:45 م;1.57;8.63;1.02;1.9;-0.34;0
06:57:46 م;1.06;9.01;-1.3;1.38;0.21;0
06:57:46 م;2.16;9.11;-3.43;0.09;-0.14;0.01
06:57:46 م;0.61;9.86;-1.4;-2.62;0.25;0.02
06:57:46 م;-0.94;1.75;4.25;-8.73;-0.36;0.06
06:57:46 م;2.06;-9.67;4.55;-8.73;1.2;0.04
06:57:46 م;0.94;-8.5;-0.82;-5.41;0.86;0.03
06:57:46 م;-0.58;-10.76;-4.55;-2.96;-0.11;0.02
06:57:46 م;-0.26;-11.61;-5.93;-0.08;-0.18;0.01
06:57:46 م;0.1;-13.6;-2.32;3.46;-0.4;0
06:57:47 م;-0.3;-11.51;-0.74;8.73;1.07;0
06:57:47 م;0.34;-1.13;2.95;8.73;0.15;-0.01
06:57:47 م;1.47;6.26;1.59;4.83;-0.92;0
06:57:47 م;1.38;8.94;0.35;2.33;-0.15;0
06:57:47 م;0.72;9.93;0.34;0.26;0.09;0.02
06:57:47 م;0.51;9.25;-0.45;-5;1.1;0.02
06:57:47 م;0.02;-2.98;4.26;-8.73;-1.03;0.06
06:57:47 م;-1.23;-11.47;3.73;-8.52;2.37;0.03
06:57:47 م;1.46;-9.74;-2.86;-3.91;0.73;0.02
06:57:47 م;1.17;-12.25;-3.96;-1.23;-0.25;0.01
06:57:48 م;-0.26;-13.63;-2.66;2.24;-0.18;0.01
06:57:48 م;0.58;-14.75;2.01;8.73;0.3;0
06:57:48 م;0.07;-6.01;6.26;8.73;-0.21;-0.02
06:57:48 م;-0.02;5.82;3.62;7.38;-1.92;0
06:57:48 م;-0.27;8.61;-1.85;1.43;0;-0.01
06:57:48 م;-1.27;10.13;-1.27;-0.62;-0.15;0.02
06:57:48 م;-0.53;9.58;-2;-3.69;0.72;0.02
06:57:48 م;0.31;6.48;1.12;-6.05;1.19;0.03
06:57:48 م;1.9;3.32;3.79;-5.53;0.51;0.04
06:57:49 م;0.06;-8.96;1.63;-8.73;0.04;0.05
06:57:49 م;-1.66;-19.52;0.51;-7.68;0.81;0.01
06:57:49 م;0.14;-11.47;-6.17;-1.58;-0.69;0.02
06:57:49 م;1.51;-18.6;-0.88;8.73;-0.37;0
06:57:49 م;-0.02;-12.24;5.48;8.73;-0.37;-0.02
06:57:49 م;-1.7;1.06;7.89;8.73;-0.86;-0.03
06:57:49 م;-1.4;8.02;4.77;2.21;-0.93;0
06:57:49 م;-1.08;9.14;-0.14;1.52;-0.53;0
06:57:49 م;-1.31;9.28;-1.32;0.16;-0.44;0.02
06:57:49 م;-0.98;10.38;-1.28;-0.54;0.15;0.02
06:57:50 م;-0.56;9.18;1.79;-4.12;0.21;0.04
06:57:50 م;-1.56;2.28;-0.64;-8.73;0.67;0.04
06:57:50 م;3;-14.15;-3.4;-8.73;-0.51;0.08
06:57:50 م;0.24;-9.35;-5.32;-2.19;-0.15;0.02
06:57:50 م;0.67;-10.84;-8.29;-1.46;0.21;0.02
06:57:50 م;-0.22;-9.49;-7.5;1.45;-0.24;0.01
06:57:50 م;1.32;-15.39;-3.35;8.35;-0.49;0
06:57:50 م;-0.42;-11.54;2.33;8.73;-0.68;-0.02
06:57:50 م;1.48;0.05;2.27;8.73;-1.3;-0.02
06:57:51 م;1.73;8.39;0.77;2.98;-0.65;0
06:57:51 م;2.34;9.45;2.33;2.11;-0.03;0
06:57:51 م;1.19;9.18;-0.77;1.77;0.72;-0.03
06:57:51 م;-1.96;8.97;-6.25;-2.84;0.58;0.01
06:57:51 م;-1.33;2.71;-2.59;-8.73;-0.07;0.05
06:57:51 م;5.45;-11.25;4.29;-8.73;0.37;0.07
06:57:51 م;-1.23;-12.89;2.3;-4.62;-0.23;0.01
06:57:51 م;0.15;-9.17;-3.63;-3.42;-0.25;0.01
06:57:51 م;-0.02;-8.73;-5.73;-2.47;0;0.01
06:57:52 م;0.22;-8.48;-7;-0.61;0.07;0.02
06:57:52 م;0.4;-15.81;-1.2;5.04;-1.34;0
06:57:52 م;-2.05;-14.75;-1.97;8.73;1.16;0
06:57:52 م;1.84;7.24;-4.62;7.97;-1.35;-0.02
06:57:52 م;0;9.6;-0.92;2.24;-0.18;0.01
06:57:52 م;-0.94;10.35;-2.99;-0.04;-0.14;0.01
06:57:52 م;-0.01;10.21;0.34;0.32;-0.14;0.02
06:57:52 م;0.18;9.55;2.63;0.56;0.07;0.01
06:57:52 م;-0.18;10.44;-0.51;1.38;-0.03;0.01
06:57:52 م;-1.96;10.66;-7.32;-4.45;1.36;0.02
06:57:53 م;-0.28;-5.66;-4.4;-8.73;-2.03;0.06
06:57:53 م;-0.91;-19.17;3.57;-8.73;2.43;0.04
06:57:53 م;0.34;-9.65;-5.02;-3.75;-0.02;0.01
06:57:53 م;0.4;-8.7;-6.95;-1.5;-0.5;0.01
06:57:53 م;0.69;-8.9;-8.4;-0.74;0.55;0.01
06:57:53 م;0.36;-12.94;-4.33;4.57;0.15;0.02
06:57:53 م;0.17;-11.8;-2.35;8.73;0.64;0
06:57:53 م;0.64;-6.89;4.75;8.73;0.35;-0.02
06:57:53 م;-0.52;8.09;2.05;3.97;-0.57;0
06:57:54 م;0.9;9.78;-0.48;0.41;-0.09;0.01
06:57:54 م;0.73;10.35;-3.04;-2.91;0.5;0.02
06:57:54 م;-0.55;1.64;-2.28;-8.73;0.64;0.05
06:57:54 م;1.52;-17.96;-1.22;-8.73;2.6;0.06
06:57:54 م;1.31;-6.25;-5.07;-1.49;-0.46;0
06:57:54 م;0.46;-9.33;-5.96;-0.12;-0.66;0.01
06:57:54 م;-0.14;-12.29;-3.96;5.39;-0.82;0.01
06:57:54 م;0.79;-13.36;3.05;5.38;0;0
06:57:54 م;-1.14;-9.31;7.64;8.73;0.77;-0.02
06:57:54 م;-0.24;2.88;-0.99;8.73;-1.28;-0.02
06:57:55 م;1.02;7.64;-3.78;3.64;-0.21;-0.03
06:57:55 م;-0.75;9.31;-6;1.19;-0.35;0.03
06:57:55 م;-1.49;10.39;-4.11;0.05;0.39;0.03
06:57:55 م;-2.63;9.58;-4.49;-1.92;0.02;0.03
06:57:55 م;-0.17;8.24;-2.88;-6.42;1.46;0.01
06:57:55 م;0.1;0.6;-0.57;-8.73;0.04;0.04
06:57:55 م;-2.31;-17.51;3.24;-8.73;1.58;0.03
06:57:55 م;0.43;-8.65;-3.65;-2.66;-0.2;0
06:57:55 م;1.02;-10.13;-5.79;-0.87;-0.38;0.01
06:57:56 م;0.44;-8.65;-6.59;-0.09;-0.01;0.01
06:57:56 م;0.44;-8.12;-7.15;-0.75;-0.03;0.01
06:57:56 م;-0.19;-8.21;-6.46;-0.6;-0.13;0.01
06:57:56 م;3.18;-28.57;-2.18;8.73;0.46;-0.02
06:57:56 م;-2.46;-6.19;0.79;8.73;-1.3;0.01
06:57:56 م;0.67;7.71;-0.3;4.99;-0.66;-0.01
06:57:56 م;-0.9;8.86;-2.97;1.66;-0.26;0.01
06:57:56 م;-1.3;9.8;-3.94;-0.97;0.13;0.01
06:57:56 م;-3.46;0.97;-10.06;-8.73;1.44;0.03
06:57:56 م;-1.23;-23.84;-0.95;-8.73;0.69;0.02
06:57:57 م;0.09;-7.93;-5.55;-1.22;-0.11;0
06:57:57 م;0.38;-7.78;-7.03;-2.88;-0.54;0.01
06:57:57 م;-0.59;-7.67;-8.26;-0.11;-0.45;0.01
06:57:57 م;-0.93;-8.71;-7.27;3.75;0.26;-0.01
06:57:57 م;-0.09;-6.12;-5.64;1.16;0.31;0
06:57:57 م;1.3;-11.34;0.43;3.85;1.7;-0.01
06:57:57 م;0.95;-8.69;2.92;4.02;0.79;0
06:57:57 م;1.87;-4.31;4.61;2.43;-0.05;0.01
06:57:57 م;0.88;-2.9;8.44;5.86;0.65;0
06:57:58 م;2.53;2.94;2.53;8.73;0.24;-0.01
06:57:58 م;-0.55;9.15;-6.63;4.43;0.01;-0.02
06:57:58 م;-3.53;9.39;-7.9;-0.37;0.08;0.01
06:57:58 م;-1.94;10.62;-5.24;-4.18;0.26;0.03
06:57:58 م;-2.17;-2.4;1.41;-8.73;-2.04;0.06
06:57:58 م;-3.45;-16.97;-1.75;-8.73;3.95;-0.01
06:57:58 م;1.41;-12.19;-5.33;-3.11;0.03;0.01
06:57:58 م;0.57;-9.9;-6.87;-1.48;-0.08;0.01
06:57:58 م;0.7;-15.5;-2.13;5.74;-0.55;0
06:57:58 م;-0.46;-16.1;0.2;8.73;1.3;0
06:57:59 م;1.34;3.85;-3.11;8.73;-1.35;-0.01
06:57:59 م;0.89;8.95;-5.51;3.57;-0.43;0
06:57:59 م;-0.13;9.32;-4.37;2.03;-0.2;0.01
06:57:59 م;-0.38;9.48;-6.64;0.4;0.32;0
06:57:59 م;-1.36;9.29;-8.58;-6.16;0.72;0.02
06:57:59 م;0.67;-6.87;-0.51;-8.73;-3.07;0.06
06:57:59 م;-0.85;-14.33;2.66;-8.73;-0.91;0.01
06:57:59 م;-0.15;-10.83;-4.88;-3.54;0.37;0.01
06:57:59 م;-1.09;-8.72;-7.66;-3.02;0.59;0.01
06:58:00 م;-0.52;-7.98;-8.49;-1.8;-0.21;0.01
06:58:00 م;-0.55;-7.4;-7.73;0.77;0.11;0.01
06:58:00 م;0.86;-15.12;-4.5;4.67;-0.14;-0.01
06:58:00 م;-1.96;-19.97;-2.68;8.73;0.05;0.01
06:58:00 م;0.75;-3.78;3.75;8.73;-1.64;-0.01
06:58:00 م;0.55;7.32;-3.64;3.81;-1.15;-0.02
06:58:00 م;-4.65;7;-10.14;-0.83;-0.61;0.01
06:58:00 م;-1.16;10.42;-9.77;-3.1;0.48;0.02
06:58:00 م;2.42;9.58;-5.64;-7.78;0.08;0.06
06:58:00 م;2.06;-0.58;3.24;-8.73;-1.97;0.05
06:58:01 م;-0.8;-18.4;-0.42;-8.73;-0.72;0.02
06:58:01 م;-0.04;-10.37;-3.8;-6.15;-0.36;-0.01
06:58:01 م;-1.42;-7.04;-10.14;-2.75;-0.96;0.01
06:58:01 م;-1.09;-8.33;-10.78;1.51;0.13;0.01
06:58:01 م;0.08;-16.79;-6.74;8.73;1.59;-0.06
06:58:01 م;3.01;-12.79;3.81;8.73;2.5;-0.04
06:58:01 م;-0.17;-5.43;-0.44;8.73;-2.51;-0.03
06:58:01 م;-1.24;8.85;-3.2;1.41;-0.19;-0.02
06:58:01 م;-2;9.96;-1.6;-0.77;-0.4;0.02
06:58:02 م;-2.47;10.76;0.45;-1.76;0.2;0.02
06:58:02 م;0.17;10;-1.63;-3.66;0.4;0.03
06:58:02 م;-1.28;3.68;-0.33;-8.73;-0.88;0.05
06:58:02 م;1.59;-13.05;-1.65;-8.73;4.54;0.01
06:58:02 م;3.98;-11.66;-2.26;-5.65;-0.05;0.02
06:58:02 م;0.4;-9.09;-8.55;-0.56;-0.56;0.01
06:58:02 م;1.35;-15.22;-4.17;5.81;0.43;-0.01
06:58:02 م;1.65;-16.85;3.55;8.73;-1.24;-0.03
06:58:02 م;-0.95;-1.74;3.48;8.73;-0.57;-0.02
06:58:02 م;0.55;6.72;2.99;5.38;-1.17;-0.01
06:58:03 م;1.24;8.67;-1.97;3.06;-0.04;-0.03
06:58:03 م;-1.28;8.62;-7.45;0.53;-0.48;0
06:58:03 م;-1.92;9.65;-4.03;-0.55;-0.32;0.03
06:58:03 م;-2.01;9.68;-0.21;-6.27;0;0.04
06:58:03 م;0.3;-1.01;-2.79;-8.73;-0.37;0.04
06:58:03 م;-1.19;-17.86;-0.04;-8.73;0.07;0.02
06:58:03 م;0.82;-7.75;-4.29;-3.27;-0.63;0.01
06:58:03 م;-0.65;-9.75;-7.92;-0.41;-0.05;0.01
06:58:03 م;1.07;-13.34;-3.9;4.29;0.22;-0.01
06:58:04 م;1.42;-9.4;-0.89;4.07;0.23;0
06:58:04 م;7.35;-13.43;13.28;8.73;1;-0.05
06:58:04 م;-3.73;6.6;-0.72;5.81;-1.22;0.04
06:58:04 م;0.69;8.94;-0.73;2.37;-0.02;0
06:58:04 م;-0.58;8.82;-0.61;0.47;-0.32;-0.01
06:58:04 م;-0.77;11.11;0.72;-0.65;-0.13;0.02
06:58:04 م;1.46;11.68;-4.98;-3.82;0.41;0.03
06:58:04 م;2.69;7.36;3.44;-4.66;0.25;0.03
06:58:04 م;0.7;-2.91;2.39;-8.73;-1.73;0.04
06:58:05 م;0.11;-8.82;2.35;-8.35;1.75;0.04
06:58:05 م;0.05;-10.04;-4.03;-5.51;0.59;0.01
06:58:05 م;1.06;-8.27;-7.95;-1.95;-0.34;0
06:58:05 م;1.31;-8.19;-9.29;-0.65;-0.24;0.01
06:58:05 م;0.37;-12.57;-6.08;2.85;-0.53;0.02
06:58:05 م;0.26;-18.5;-2.25;8.73;1.32;-0.01
06:58:05 م;0.29;-1.35;-0.62;8.73;-1.41;0
06:58:05 م;-0.16;6.08;9.76;3.89;-1.22;0
06:58:05 م;-1.88;9.54;-0.87;-0.51;-0.22;0.01
06:58:05 م;2.77;9.91;-0.37;0.62;0.12;0
06:58:06 م;1.3;10.29;-2.46;0.15;-0.17;0.02
06:58:06 م;0.32;10.11;-2.98;-2.05;0.91;0.01
06:58:06 م;-1.87;-2.43;-6.48;-8.73;1.46;0.01
06:58:06 م;5.71;-24.34;3.42;-8.73;-0.47;0.02
06:58:06 م;-0.23;-8.71;-5.79;-2.98;-1.11;0
06:58:06 م;0.93;-9.45;-8.33;0.64;-0.43;0.01
06:58:06 م;0.13;-8.97;-7.03;-0.09;0.42;0.01
06:58:06 م;1.61;-18.18;0.8;8.14;0.37;0.01
06:58:06 م;-2.42;-7.32;-3.57;8.73;0.77;0
06:58:07 م;3.75;3.03;3.59;6.74;-1.03;0
06:58:07 م;1.26;6.57;5.06;3.19;-0.78;-0.01
06:58:07 م;-1.51;9.11;1.99;0.93;-0.24;-0.01
06:58:07 م;0.27;9.11;2.89;2.65;-0.51;0
06:58:07 م;-1.12;9.15;-5.33;1.8;0.82;-0.04
06:58:07 م;-2.95;9.37;-5.13;-1.22;-0.05;0.02
06:58:07 م;-2.38;9;-5.23;-5.29;1.18;0.01
06:58:07 م;-0.29;2.75;-3.69;-8.73;-1.22;0.06
06:58:07 م;-3.1;-12.56;1.83;-8.73;2.82;0.01
06:58:07 م;2.09;-9.05;-5.21;-3.98;-0.46;0.02
06:58:08 م;0.56;-9.85;-7.04;-1.68;-0.5;0.01
06:58:08 م;-0.37;-10.15;-6.46;0.95;-0.17;0.01
06:58:08 م;1.08;-14.64;-1.69;7.25;0.62;0
06:58:08 م;0.91;-11.7;2.7;8.73;0.8;-0.01
06:58:08 م;1.96;-1.27;4.21;8.73;-0.89;-0.03
06:58:08 م;-2.54;8.51;-1.4;3.9;-0.84;-0.02
06:58:08 م;-2.32;10.34;-0.27;1.74;-0.29;0.01
06:58:08 م;-0.82;10.36;-3.95;0.11;0.39;0.01
06:58:08 م;-4.08;3.91;-5.94;-8.73;1.42;0.03
06:58:09 م;4.01;-11.99;7.24;-8.73;-0.02;0.07
06:58:09 م;1.54;-9.03;-2.5;-4.71;-0.39;0.04
06:58:09 م;-0.72;-9.48;-3.99;-3.29;-0.71;0.01
06:58:09 م;-0.61;-9.96;-7.03;-0.12;-0.11;0.01
06:58:09 م;-0.87;-11.38;-5.82;1.91;0.19;0.01
06:58:09 م;0.44;-19.06;0.58;8.73;-0.18;-0.01
06:58:09 م;-0.73;-6.55;3.08;8.73;-0.81;0
06:58:09 م;-0.39;4.91;2.62;4.99;-0.42;-0.01
06:58:09 م;0.49;7.74;3.84;1.79;-0.2;0.01
06:58:09 م;0.66;9.02;0.36;-0.18;0.26;0
06:58:10 م;2.01;9.07;2.06;-1.29;0.14;0.02
06:58:10 م;1.74;8.03;2.25;-3.98;0.49;0.02
06:58:10 م;0.6;-2.77;3.12;-8.73;-0.65;0.05
06:58:10 م;0.11;-15.61;5.92;-8.73;1.11;0.03
06:58:10 م;0.06;-8.42;-3.46;-4.24;-0.09;0.01
06:58:10 م;0.14;-8.45;-5.94;-2.24;-0.5;0.01
06:58:10 م;0.1;-12.56;-5.75;2.58;-0.28;0.02
06:58:10 م;0.32;-16.39;-1.71;8.73;0.77;-0.01
06:58:10 م;0.17;-9.17;6.59;8.73;-0.77;-0.01
06:58:11 م;-0.36;4.21;0.19;7.81;-0.77;-0.01
06:58:11 م;-0.32;9.39;-2.72;1.83;0.22;-0.01
06:58:11 م;1.37;9.98;-1.62;-0.36;0.2;0.01
06:58:11 م;1;10;-0.63;-0.63;0.26;0.01
06:58:11 م;0.74;10.31;-2.02;-0.46;0.67;0.01
06:58:11 م;-1.08;7.56;-4.52;-8.73;0.53;0.04
06:58:11 م;3.03;-9.22;6.44;-8.73;-0.19;0.05
06:58:11 م;0.94;-10.68;2.23;-5.36;0.06;0.03
06:58:11 م;0.53;-9.21;-5.57;-4.75;-0.16;0
06:58:11 م;1.19;-8.89;-8.55;-2.19;-0.15;0.02
06:58:12 م;0.11;-12.87;-8.01;1.72;-0.28;0.02
06:58:12 م;0.12;-12.68;-5.07;8.21;0.5;0
06:58:12 م;0.52;-13.07;4.27;8.73;0.38;-0.01
06:58:12 م;1.49;-2.71;0.45;8.73;-1.15;-0.01
06:58:12 م;-2.55;7.85;-4.07;3.99;0.48;-0.03
06:58:12 م;-1.42;9.93;-3.11;1.05;-0.11;0.02
06:58:12 م;-0.71;10.3;-2.85;-0.7;0.15;0.02
06:58:12 م;0.27;10.81;-1.7;-2.28;0.07;0.02
06:58:12 م;0.34;8.18;-1.25;-7.27;0.2;0.04
06:58:13 م;-1.96;-6.09;1.22;-8.73;-2.03;0
06:58:13 م;-0.36;-17.1;2.1;-7.76;-1.07;0.03
06:58:13 م;-1.35;-8.44;-5.09;-2.78;-0.45;0.02
06:58:13 م;-0.14;-8.26;-7.73;-0.54;0.28;0
06:58:13 م;1.67;-12.1;-2.38;3.85;0.74;0
06:58:13 م;0.28;-21.75;3.37;8.73;2.77;-0.02
06:58:13 م;-0.38;0.91;1.31;8.73;-1.08;0.02
06:58:13 م;1.56;9.35;-3.46;4.25;-1.18;-0.01
06:58:13 م;-2.49;9.27;-0.86;-0.47;0.31;0
06:58:13 م;0.61;10.16;-1.8;-0.8;0.25;0.01
06:58:14 م;0.7;10.65;-5.25;-4.03;0.67;0.02
06:58:14 م;0.38;4.39;5.49;-7.02;-1.14;0.05
06:58:14 م;1.56;-2.72;5.67;-8.64;1.42;0.01
06:58:14 م;3.1;-14.09;1.01;-8.73;1.67;0.03
06:58:14 م;3.22;-6.06;-5.08;-3.67;-0.16;0
06:58:14 م;3.35;-9.62;-8.5;0.41;-0.02;0.01
06:58:14 م;1.03;-13.22;-2.69;7.26;-0.82;0.01
06:58:14 م;1.48;-10.94;2.29;8.73;-0.56;0.01
06:58:14 م;6.01;-2.38;4.75;8.73;-2.53;-0.01
06:58:15 م;-0.19;10.45;-2.85;3.1;-1.07;-0.02
06:58:15 م;-0.49;9.5;-1.88;1.08;-0.18;0.01
06:58:15 م;1.65;10.34;-1.38;-0.44;0.35;0.01
06:58:15 م;0.8;9.96;-4.42;-3.91;0.76;0.02
06:58:15 م;1.34;1.51;2.96;-8.73;-0.88;0.05
06:58:15 م;3.41;-9.39;10.2;-7.18;1.1;0.03
06:58:15 م;0.53;-9.55;0.99;-5.91;1.02;0.03
06:58:15 م;0.4;-12.51;-0.87;-2.4;1.01;0.02
06:58:15 م;1.15;-10.54;-2.21;0.15;-0.3;0.01
06:58:16 م;5.54;-16.8;2.45;8.73;-0.4;-0.01
06:58:16 م;2.47;-4.59;3.81;8.73;-0.89;-0.03
06:58:16 م;-3.33;8.74;-2.98;5.63;0.49;-0.04
06:58:16 م;-0.29;9.43;-0.78;1.32;0.01;0
06:58:16 م;-0.02;10.08;-0.84;-0.21;0.37;0.02
06:58:16 م;6.97;9.86;-1.65;-0.03;-1.02;0.03
06:58:16 م;2.4;9.91;-0.27;0.16;-0.49;0.01
06:58:16 م;-1.07;10.06;-3.93;-4.66;0.3;0.01
06:58:16 م;0.8;-0.06;2.89;-8.73;-0.61;0.04
06:58:16 م;3.08;-9.57;6.48;-8.11;-0.32;0.04
06:58:17 م;1.27;-10.73;2.41;-3.03;0.77;0.01
06:58:17 م;1.02;-10.52;-0.55;-3.08;0.8;0.01
06:58:17 م;1.76;-9.78;-3.21;-1.16;0.12;0.01
06:58:17 م;0.42;-12.55;-1.3;2.26;-1.06;0.01
06:58:17 م;1.3;-13.75;2.02;8.73;0.12;0
06:58:17 م;1.62;-1.26;5.83;8.73;-0.38;-0.01
06:58:17 م;1.53;8.27;-2.14;5.69;-0.62;-0.03
06:58:17 م;-0.22;9.31;-3.24;0.87;-0.14;-0.01
06:58:17 م;1.31;9.62;-2.58;-0.69;0.08;0.01
06:58:18 م;1.4;9.05;-3.51;-5.01;0.48;0.04
06:58:18 م;1.51;2.94;-1.09;-8.73;0.23;0.06
06:58:18 م;6.45;-10.24;4.96;-8.68;0.93;0.06
06:58:18 م;-0.67;-14.73;2.45;-5.27;1.57;0.02
06:58:18 م;1.59;-9.7;-2.78;-2.29;0.23;0.01
06:58:18 م;1.92;-10.53;-3.73;-0.19;-0.09;0.01
06:58:18 م;2.78;-18.74;0.84;8.73;-3.25;0
06:58:18 م;0.55;-8.24;4.77;8.73;-0.72;0
06:58:18 م;1.36;7.13;1.41;6.21;-1.04;-0.02
06:58:18 م;3.78;9.84;1.42;1.62;-1.01;0
06:58:19 م;0.27;9.5;-0.4;-0.22;-0.26;0.02
06:58:19 م;0.81;10.52;-1.52;-2.14;0.71;0.02
06:58:19 م;1.47;1.43;-0.55;-8.73;-0.7;0.07
06:58:19 م;7.73;-10.2;4.91;-8.73;1.99;0.07
06:58:19 م;0.42;-13.19;0.2;-5.37;1.06;0
06:58:19 م;2.35;-9.79;-4.33;-1.51;-0.12;0
06:58:19 م;1.4;-14.37;-2.51;2.38;-1.44;0.02
06:58:19 م;2.61;-13.14;-1.86;8.73;1.77;0
06:58:19 م;0.19;5.43;-4.16;8.73;-0.49;-0.03
06:58:20 م;0.65;10.07;-0.55;1.89;-0.28;0.01
06:58:20 م;1.02;10.2;-0.31;1.28;-0.05;0.01
06:58:20 م;1.24;9.85;-1.97;-0.48;0.13;0.02
06:58:20 م;1.74;8.72;0.24;-4.67;-0.06;0.05
06:58:20 م;1;1;5.43;-8.73;-0.42;0.06
06:58:20 م;3.9;-8.14;3.52;-8.73;1.37;0.05
06:58:20 م;0.37;-12.75;1.89;-2.99;-0.03;0.01
06:58:20 م;0.76;-10.61;-1.26;-1.83;-0.12;0.01
06:58:20 م;1.71;-11.32;-2.43;0.53;-0.28;0.02
06:58:20 م;3.38;-15.18;0.29;6.56;-0.07;0.02
06:58:21 م;0.6;-3.61;-6.2;8.73;2.16;-0.02
06:58:21 م;-2.16;9.38;-1.03;3.61;-0.1;0
06:58:21 م;-0.47;9.75;0.35;0.17;-0.74;0.03
06:58:21 م;1.38;11.07;0.79;-0.77;-0.27;0.04
06:58:21 م;1.04;10.27;0.55;-5.24;0.61;0.02
06:58:21 م;1.32;1.02;7.34;-8.38;-1.3;0.03
06:58:21 م;-0.8;-6.2;2.18;-8.73;1.28;0
06:58:21 م;-0.79;-11.87;2.57;-3.65;0.27;0
06:58:21 م;0.55;-9.1;-2.26;-2.13;-0.52;-0.01
06:58:22 م;1.51;-12.2;-4.64;1.14;-0.37;0.01
06:58:22 م;1.27;-13.61;-0.19;6.72;-0.65;0.02
06:58:22 م;0.71;-7.06;5.21;8.73;0.55;0.01
06:58:22 م;-0.69;5.06;2.95;7.88;0;0
06:58:22 م;-2.75;7.41;-2.29;2.72;-0.68;0.06
06:58:22 م;6.99;11.07;4.12;0.85;-0.1;0.06
06:58:22 م;3.44;8.82;0.15;-1.19;0.07;-0.01
06:58:22 م;1.5;6.94;1.81;-6.97;0.73;0.01
06:58:22 م;-0.74;0.87;-0.86;-8.73;-0.55;0.03
06:58:23 م;-2.65;-19.63;2.54;-8.73;1.28;-0.01
06:58:23 م;0.94;-9.47;-3.3;-2.82;0.71;0
06:58:23 م;0.71;-9.66;-3.05;-0.8;0.09;0.01
06:58:23 م;-0.79;-14.86;-1.33;5.02;-1.97;0.03
06:58:23 م;2.22;-14.51;8;8.73;-2.25;0.02
06:58:23 م;0.09;2.04;3.6;8.73;-0.6;-0.01
06:58:23 م;-1.54;8.99;-4.07;2.92;-0.42;-0.02
06:58:23 م;-0.69;10.39;0.39;-0.02;-0.12;0.01
06:58:23 م;1.61;11.46;-2.6;-3.87;0.22;0.03
06:58:23 م;0.79;-2.13;4;-8.73;-3.1;0.06
06:58:24 م;-0.9;-8.69;3.56;-8.16;2.61;0.02
06:58:24 م;0.75;-13.05;2.26;-0.67;-0.05;0
06:58:24 م;0.86;-9.41;0.53;-1.57;0.26;0.01
06:58:24 م;1.15;-9.16;-1.47;-1.89;0.23;0.01
06:58:24 م;1.16;-10.62;-2.65;-1.5;0.1;0.01
06:58:24 م;2.97;-13.91;-1.26;7.92;-1.06;0.02
06:58:24 م;0.97;-1.49;0.59;8.73;0.93;-0.01
06:58:24 م;-1.66;2.77;9.36;7.18;0.45;0
06:58:24 م;-0.46;8.93;3.67;3.71;-0.7;0.01
06:58:24 م;0.95;9.25;-0.86;1.36;-0.12;0.01
06:58:25 م;-1.19;9.62;1.7;-1.95;0.76;0.02
06:58:25 م;1.57;7.2;2.12;-5.54;-0.4;0.05
06:58:25 م;3.01;1.28;1.64;-8.73;0.26;0.04
06:58:25 م;-1.4;-14.99;0.52;-8.73;2.24;0.03
06:58:25 م;2.89;-8.36;-4.73;-1.7;-0.26;0
06:58:25 م;2.11;-8.98;-4.74;0.27;0.23;0.01
06:58:25 م;1.16;-13.12;-2.7;3.61;-0.48;0.03
06:58:25 م;2.04;-16.35;-0.33;8.73;0.84;0.03
06:58:25 م;2.44;0.29;5.02;8.54;-0.2;-0.01
06:58:26 م;-1.6;7.56;0.39;5.01;0.82;-0.02
06:58:26 م;0.68;9.03;-0.35;4.11;-0.15;0.01
06:58:26 م;-1.18;9.56;-3.79;1.86;-0.21;0.02
06:58:26 م;0.15;11.31;-0.65;0.25;0.46;0.02
06:58:26 م;0.84;11.27;-1.13;-1.47;0.73;0.01
06:58:26 م;-0.26;7.02;-1.2;-8.32;0.77;0.04
06:58:26 م;7.87;-3.83;5.36;-8.73;0.47;0.06
06:58:26 م;0.15;-17.17;4.87;-8.73;-0.55;-0.01
06:58:26 م;1.7;-8.13;-3;-3.27;-0.8;0.01
06:58:27 م;2.25;-11;-3.26;0.95;-0.61;0.01
06:58:27 م;3.88;-13.86;0.45;8.73;0.89;-0.01
06:58:27 م;1.16;1.71;-2.49;8.73;1.04;-0.04
06:58:27 م;-1.23;8.91;-2.83;4.43;-0.87;0.01
06:58:27 م;-1.33;10.17;-1.59;1.52;0.01;0.01
06:58:27 م;0;9.81;-1.86;-0.39;0.27;0.01
06:58:27 م;-0.77;10.77;-0.01;-1.95;0.37;0.02
06:58:27 م;0.62;6.48;3.29;-7.2;-0.54;0.05
06:58:27 م;4.32;0.16;4.21;-8.73;3.82;0.04
06:58:27 م;1.65;-9.92;2.95;-7.86;-0.53;0.02
06:58:28 م;0.53;-11.43;2.14;-1.26;-0.59;0
06:58:28 م;0.94;-15.41;3.78;2.02;0.43;0.02
06:58:28 م;2.59;-12.41;3.97;8.73;-0.03;0
06:58:28 م;0.12;3.93;1.69;8.73;-0.27;-0.01
06:58:28 م;-1.34;9.75;-1.31;4.1;-0.41;-0.01
06:58:28 م;0.35;10.1;-2.21;0.82;-0.46;0.02
06:58:28 م;0.83;10.73;-0.72;0.14;-0.18;0.02
06:58:28 م;0.24;10.49;-0.95;-0.24;0.01;0.01
06:58:28 م;-0.89;9.64;-3.68;-6.62;0.74;0.03
06:58:29 م;2.99;-2.71;3.36;-8.73;-3.23;0.05
06:58:29 م;-2.02;-12.25;3.02;-8.7;1.18;0.02
06:58:29 م;0.23;-10.35;0.13;-2.75;-0.21;0
06:58:29 م;1.69;-11.61;-2.08;-0.22;-0.31;0.01
06:58:29 م;2.05;-11.94;-0.38;3.91;-0.07;0.02
06:58:29 م;3.15;-8.85;3.35;6.27;0.4;0
06:58:29 م;1.14;-2.84;6.4;8.73;0.7;-0.03
06:58:29 م;-0.62;5.7;3.97;6.62;-0.12;-0.01
06:58:29 م;0.06;9.5;2.16;2.55;-0.96;0.01
06:58:29 م;0.52;10.21;-1.76;-0.84;0.1;0.01
06:58:30 م;0.21;10.17;-3.06;-6.07;0.48;0.04
06:58:30 م;3.05;3.77;2.9;-8.21;-1.34;0.04
06:58:30 م;4.6;-9.32;4.03;-7.6;1.74;0.03
06:58:30 م;-0.53;-15.5;3.78;-4.84;0.22;0.01
06:58:30 م;1.6;-10.09;-1.01;-3.05;-0.53;0.01
06:58:30 م;2.82;-10.7;-4.66;-0.49;-0.13;0.01
06:58:30 م;1.26;-9.39;-3.88;1.2;-0.06;0.01
06:58:30 م;2.67;-12.43;-1.87;6.17;-0.26;0.01
06:58:30 م;3.58;-5.82;3.24;8.73;0.02;-0.01
06:58:31 م;-0.29;4.06;5.71;8.73;0.34;-0.02
06:58:31 م;-0.42;9.15;-0.89;3.23;-0.3;-0.01
06:58:31 م;0.44;10.01;-1.64;-0.94;-0.03;0.02
06:58:31 م;0.79;9.78;-0.34;-1.77;-0.03;0.02
06:58:31 م;1.69;8.32;4.32;-0.97;-0.18;0.02
06:58:31 م;0.27;8.06;5.41;-0.32;0.06;0.02
06:58:31 م;-0.75;-1.7;-6.18;-8.73;0.83;0.02
06:58:31 م;0.9;-22.43;5.55;-8.73;0.56;-0.01
06:58:31 م;2.02;-9.76;-4.53;-2.42;0.23;0
06:58:31 م;1.31;-7.87;-3.74;0.34;0.17;0.01
06:58:32 م;1.8;-13.12;-0.84;5.69;0.07;0.01
06:58:32 م;2.05;-8.69;3.32;7.49;0.01;0.02
06:58:32 م;1.47;0.83;3.98;8.73;0.55;-0.01
06:58:32 م;-0.09;7.89;1.1;5.58;0.17;-0.01
06:58:32 م;0.91;9.75;0.44;3.03;-0.5;0.01
06:58:32 م;0.5;9.9;1.53;0.25;-0.11;0.02
06:58:32 م;0.55;9.39;0.63;-4.82;0.68;0.03
06:58:32 م;1.38;4.12;2.14;-8.73;-1.21;0.05
06:58:32 م;2.6;-4.3;4.79;-6.27;0.34;0.04
06:58:33 م;1.29;-13.79;4.92;-4.74;1.35;0.02
06:58:33 م;2.04;-7.72;0.29;-1.76;0.29;0.01
06:58:33 م;3.93;-7.22;-4.33;-3.19;0.65;0.01
06:58:33 م;1.98;-9.7;-3.2;-0.42;0.13;0
06:58:33 م;1.45;-19.82;0.6;5.92;-2.79;0.02
06:58:33 م;1.86;-8.39;3.62;8.73;0.69;-0.01
06:58:33 م;-0.62;1.99;7.96;8.06;0.35;-0.03
06:58:33 م;-0.77;9.39;-0.22;3.99;-0.64;-0.01
06:58:33 م;1.16;9.97;-2.28;1.12;-0.28;0.01
06:58:33 م;0.01;10.16;-2.73;-0.72;0.14;0.02
06:58:34 م;0.78;10.18;-1.86;-2.2;0.1;0.02
06:58:34 م;-0.11;7.44;-1.91;-8.09;0.89;0.05
06:58:34 م;9.66;-5.5;3.81;-8.73;-0.62;0.07
06:58:34 م;-0.16;-18.24;5.96;-7.39;-0.59;-0.01
06:58:34 م;1.4;-8.6;-3.59;-3.94;-0.54;0.01
06:58:34 م;2.62;-8.99;-5.2;-0.99;-0.11;0.01
06:58:34 م;1.75;-10.3;-3.44;1.09;0.06;0.01
06:58:34 م;2.55;-10.47;-2.44;8.4;0.81;-0.01
06:58:34 م;1.4;-4.97;4.64;8.73;0.19;0
06:58:35 م;3.67;1.62;5.97;8.73;-1.17;-0.02
06:58:35 م;-0.24;8.54;1.86;3.37;-0.52;-0.01
06:58:35 م;-1.81;9.52;1.64;0.6;-0.11;0.01
06:58:35 م;-0.38;10.31;-0.47;-1.05;0.26;0.01
06:58:35 م;-0.12;8.8;1.29;-4.94;-0.1;0.03
06:58:35 م;0.37;6.74;4.42;-5.5;0.2;0.04
06:58:35 م;0.93;2.09;6.16;-5.25;-1.29;0.03
06:58:35 م;4.03;-5.66;1.68;-7.45;-0.94;0.03
06:58:35 م;1.3;-21;2.36;-6.89;2.56;0.01
06:58:35 م;1.14;-10.34;-1.58;-2.19;0.74;0.01
06:58:36 م;1.78;-11.45;-2.59;0.24;-0.75;0.01
06:58:36 م;7.47;-17.04;-0.4;8.73;0.68;-0.02
06:58:36 م;2.94;-0.7;0.32;8.73;-2.55;-0.03
06:58:36 م;-2.07;10.25;1.09;3.64;-0.48;-0.03
06:58:36 م;-1.62;9.8;0.31;1.48;-0.12;0.01
06:58:36 م;-1.74;9.49;-5.41;-2.93;0.81;0.02
06:58:36 م;0.26;5.38;2.26;-8.13;-0.07;0.05
06:58:36 م;3.75;-5.64;2.27;-8.73;-1.81;0.06
06:58:36 م;-1.92;-18.08;5.62;-8.02;2.96;-0.01
06:58:37 م;1.29;-10.66;0.12;-1.42;0.01;0.01
06:58:37 م;3.05;-13.48;2.78;6.59;-0.57;0.01
06:58:37 م;1.72;-3.39;3.97;8.73;0.47;-0.02
06:58:37 م;2.78;5.66;2.21;6.59;-0.74;-0.01
06:58:37 م;4.97;9.68;0.45;1.91;-0.74;0
06:58:37 م;1.29;8.55;2.87;-0.35;-0.55;0.03
06:58:37 م;2.93;9.04;3.12;-0.55;0.35;0.01
06:58:37 م;3.73;8.29;2.05;-0.54;0.08;0.02
06:58:37 م;2.29;5.08;-2.35;-8.73;1.97;0.06
06:58:37 م;0.23;-12.98;-2.33;-8.73;3.7;0.05
06:58:38 م;5.47;-6.51;-5.72;-0.61;-0.06;0.01
06:58:38 م;4.47;-8.5;-5.5;-0.86;-0.09;0.01
06:58:38 م;2.8;-14.99;-1.87;5.19;-1.43;0.02
06:58:38 م;4.39;-14.7;4.71;8.73;0.92;-0.01
06:58:38 م;0.81;0.6;5.74;8.73;-0.3;-0.03
06:58:38 م;0.11;7.96;0.73;4.42;-0.32;-0.05
06:58:38 م;2.67;10.25;-2.78;0.77;-0.45;0.01
06:58:38 م;1.56;10.24;-3.35;-0.45;-0.01;0.01
06:58:38 م;0.02;10.81;-3.06;-4.04;0.06;0.03
06:58:39 م;0.26;1.68;3.97;-8.73;-2.04;0.07
06:58:39 م;-0.14;-4.39;7.68;-6.07;1.85;0
06:58:39 م;-1.34;-8.3;2.44;-6.15;0.42;0
06:58:39 م;0.56;-13.42;-2.11;-6.84;0.23;0.01
06:58:39 م;0.21;-10.07;-4.26;-2.83;0.56;-0.02
06:58:39 م;0.52;-9.85;-6.2;0.67;-0.01;0.01
06:58:39 م;3.69;-11.69;-4.99;8.73;1.05;-0.03
06:58:39 م;3.6;-10.52;6.17;8.73;1.9;0.04
06:58:39 م;-2.06;-0.06;14.25;5.87;-1.48;0.02
06:58:40 م;-0.72;6.05;7.64;5.23;-0.99;0
06:58:40 م;-0.48;9.8;-0.94;0.38;0.23;-0.01
06:58:40 م;-0.34;9.76;0.4;-1.47;0.46;0.02
06:58:40 م;-0.8;5.35;0.47;-8.73;0.04;0.07
06:58:40 م;1.15;-0.49;5.26;-6.91;4.89;0.02
06:58:40 م;7.53;-11.75;5.81;-8.73;2.23;0.07
06:58:40 م;0.24;-8.99;-0.42;-4.29;0.06;-0.01
06:58:40 م;1.41;-9.45;-3.58;-1.11;-0.39;0
06:58:40 م;2.33;-10.69;-3.75;1.47;-0.62;0.01
06:58:40 م;5.22;-11.05;-1.46;7.8;1.17;-0.01
06:58:41 م;5.06;-6;2.79;8.73;-0.93;0.02
06:58:41 م;0.22;4.53;1.25;8.46;-0.99;0
06:58:41 م;1.14;9.77;-0.08;3.3;-0.85;0.01
06:58:41 م;1.92;10.3;2.26;1.2;-0.4;0
06:58:41 م;-0.14;9.64;0.53;-1.26;0.25;0.02
06:58:41 م;0.88;4.98;2.92;-8.73;-0.06;0.05
06:58:41 م;4.16;-0.78;6.03;-8.02;0.16;0.05
06:58:41 م;3.89;-6.7;2.85;-8.38;0.76;0.05
06:58:41 م;1.2;-12.45;1.35;-2.91;0.69;0.01
06:58:42 م;1.49;-10.97;-2.37;-1.31;-0.14;0.01
06:58:42 م;0.77;-10.88;-2.01;1.47;-1;0.01
06:58:42 م;2.67;-11.17;0.65;5.28;-0.43;0
06:58:42 م;2.81;-11.26;8.06;8.18;-0.38;0
06:58:42 م;2.58;1.48;5.25;8.73;-0.16;-0.02
06:58:42 م;1.97;8.86;0.35;4.04;-0.2;-0.02
06:58:42 م;-0.33;9.77;-0.72;2.17;-0.68;0.03
06:58:42 م;0.28;10.06;-2.08;0.33;0.06;0.01
06:58:42 م;2.15;11.05;-2.57;-4.13;1;0.02
06:58:42 م;-0.62;-0.34;-1.93;-8.73;-0.96;0.06
06:58:43 م;1.63;-16.12;5.09;-8.73;2.86;0.04
06:58:43 م;1.14;-9.42;-0.51;-1.37;1.18;0.01
06:58:43 م;0.74;-9.79;-0.3;0.56;-0.56;0.02
06:58:43 م;1.06;-11.66;1.85;3.32;-0.73;0.01
06:58:43 م;2.74;-8.03;6.32;6.96;0.2;-0.01
06:58:43 م;0.74;2.21;4.14;4.07;0.7;-0.02
06:58:43 م;1.26;4.95;5.91;4.27;-0.84;-0.01
06:58:43 م;3.64;8.26;0.05;2.81;-2.45;0.01
06:58:43 م;3.71;8.28;0.37;0.52;-1.51;0.01
06:58:44 م;3.67;8.73;-0.28;-0.47;-0.29;-0.01
06:58:44 م;3.73;8.44;-2.56;-0.63;-0.69;0.02
06:58:44 م;3.93;7.12;3.36;-1.94;1.12;0.04
06:58:44 م;2.96;1.16;-4.2;-8.73;2.07;0.04
06:58:44 م;6.51;-5.6;5.65;-2.55;-1.09;0.06
06:58:44 م;5.33;-8.4;0.49;-3.19;-1.43;0.09
06:58:44 م;4.76;-7.41;-2.21;-3.26;-1.53;0.02
06:58:44 م;3.85;-10.1;-4.69;-0.04;-0.62;0.03
06:58:44 م;1.53;-11.23;-4.89;-0.24;-0.79;0.01
06:58:44 م;2.25;-10.28;-3.96;-0.07;-0.26;0.01
06:58:45 م;1.91;-7.97;-2.31;6.57;0.89;0.01
06:58:45 م;4.04;-4.98;0.67;8.73;1.26;-0.01
06:58:45 م;3.16;4.92;0.4;5.71;-0.45;0.01
06:58:45 م;3.03;7.79;2.02;2.78;-0.47;0.01
06:58:45 م;4.8;9.29;-0.79;3.27;-0.31;0
06:58:45 م;-1.36;8;-1.75;1.92;1.08;-0.06
06:58:45 م;-3.39;8.83;-4.11;0.89;0.18;-0.01
06:58:45 م;-1.99;9.8;-3.17;-1.56;-0.04;0.03
06:58:45 م;2.9;10.56;-1.59;-1.52;-0.11;0.04
06:58:46 م;3.07;9.75;0.58;-0.56;-0.2;0.02
06:58:46 م;1.29;9.97;1.07;-0.19;0;0.02
06:58:46 م;1.78;9.38;1.68;0.03;-0.11;0.02
06:58:46 م;2.09;9.2;2.19;-0.18;-0.11;0.02
06:58:46 م;2.44;10.99;-0.34;-1.92;1.29;-0.01
06:58:46 م;-1.38;-14.47;-7.38;-8.73;-0.16;-0.01
06:58:46 م;-0.16;-11.55;-1.36;2.75;-0.57;0.01
06:58:47 م;0.79;-11.13;-3.95;-1.39;-0.12;0.01
06:58:47 م;0.48;-13.93;-3.27;3.11;-1.03;0.03
06:58:47 م;-1.83;-8.17;-1.8;5.79;-0.69;0.03
06:58:47 م;-0.36;-8.75;4.53;-0.45;-0.32;0.02
06:58:47 م;0.33;-12.29;9.16;3.36;-0.34;0.01
06:58:47 م;-1.11;-8.73;11.83;8.73;-0.23;0
06:58:47 م;-2.32;5.27;-6.84;8.73;-1.07;0
06:58:47 م;-1.96;9.28;-3.69;1.98;-0.2;-0.01
06:58:47 م;-0.55;9.62;-4.73;-1.17;-0.03;0.01
06:58:47 م;-0.05;10.23;-2.32;-0.44;0.05;0.02
06:58:47 م;-0.02;10.44;-1.04;-0.24;-0.08;0.01
06:58:47 م;-0.51;10.13;-0.45;0.01;-0.08;0.01
06:58:48 م;-0.74;10.04;1.13;-0.27;-0.08;0.01
06:58:48 م;-1.02;9.9;0.86;-0.24;0.11;0.01
06:58:48 م;-0.85;9.64;0.34;-0.11;0.16;0.01
06:58:48 م;-0.46;9.6;1.08;-0.2;-0.07;0.02
06:58:48 م;0.19;9.8;1.44;-0.24;-0.27;0.02
06:58:48 م;-0.48;9.43;0.88;-0.28;-0.1;0.01
06:58:49 م;-1.3;9.15;-0.88;-4.5;0.73;0.01
06:58:49 م;-0.68;-0.8;6.34;-8.65;-1.35;0.04
06:58:49 م;-0.21;-6.94;13.72;-2.56;1.23;0.01
06:58:49 م;0.37;-2.77;6.31;0.1;-0.31;0.01
06:58:49 م;-0.06;-3.38;7.41;-0.2;0.01;0.01
06:58:49 م;0.41;-4.36;7.81;-0.98;-0.28;0.01
06:58:49 م;1.41;-6.76;4.49;-6.13;1.46;0.01
06:58:49 م;-0.78;-12.53;3.13;-3.82;0.58;0.01
06:58:49 م;-0.57;-10.46;0.17;-0.69;0.41;0.02
06:58:49 م;-0.99;-9.32;0.28;1.81;-0.02;0.01
06:58:49 م;-1.03;-9.62;2.22;0.34;0.02;0.01
06:58:49 م;-0.28;-12.58;7.02;2.14;-0.57;0.02
06:58:49 م;-2;-5.53;5.53;8.73;0.69;0.01
06:58:50 م;-0.67;3.55;2.39;8.65;-0.34;0
06:58:50 م;-1.75;9.05;-2.5;2.72;0.36;-0.02
06:58:50 م;-2.29;10.58;-1.29;-0.17;-0.14;0.01
06:58:50 م;-2.46;10.59;-0.29;-1.09;-0.14;0.02
06:58:50 م;-1.54;9.78;2.18;-0.56;-0.15;0.02
06:58:50 م;-2.07;9.57;0.38;-0.07;0.17;0.01
06:58:50 م;-0.1;10.05;-5.09;-5.36;0.44;0.01
06:58:50 م;5.22;-14.66;-10.23;-8.73;-3.83;0.02
06:58:50 م;-3.32;-14.15;0.69;3.08;-1.47;-0.01
06:58:50 م;-0.69;-14.35;-2.63;-0.38;0.12;0.02
06:58:51 م;0.21;-10.32;-3.21;0.9;-0.58;0.01
06:58:51 م;-0.17;-9.68;-0.7;4.21;-0.27;0.01
06:58:51 م;0.85;-6.65;2.16;1.46;0.06;0
06:58:51 م;0.01;-8.6;6.94;-0.04;1.44;-0.02
06:58:51 م;0.97;-12.68;5.55;8.73;1.03;-0.02
06:58:51 م;2.38;10.26;-5.16;1.99;-0.7;0.02
06:58:51 م;-1.35;10.55;-6;0.41;0.29;0.01
06:58:51 م;0.41;10.1;-1.5;-2.94;0.53;0.03
06:58:51 م;2.99;7.03;5.95;-3.56;-0.87;0.05
06:58:52 م;1.08;0;0.85;-8.73;-0.07;0.04
06:58:52 م;-1.62;-21.35;1.5;-8.73;4.61;-0.02
06:58:52 م;0.66;-9.43;-1.09;-1.29;0.21;0.01
06:58:52 م;0.25;-15.32;1.02;5.55;-1.75;0.03
06:58:52 م;0.91;-4.73;-0.03;8.56;-0.8;0.02
06:58:52 م;1.92;-1.3;7.49;0.41;-0.2;0.01
06:58:52 م;1.83;-1.59;7.7;0.36;-0.52;0.02
06:58:52 م;3.08;-1.7;8.14;0.3;-0.43;0.01
06:58:52 م;3.73;-1.15;7.59;0.11;-0.57;0.01
06:58:53 م;3.49;-1.56;7.69;-0.01;-0.22;0.01
06:58:53 م;3.5;-1.26;7.49;0.04;-0.26;0.01
06:58:53 م;3.88;-1.18;7.53;0.01;-0.26;0.01
06:58:53 م;3.74;-0.83;7.11;-0.25;-0.18;0.01
06:58:53 م;4.48;-1.74;7.2;-0.23;-0.18;0.01
06:58:53 م;4.46;-1.94;7.25;0.02;0.04;0.01
06:58:53 م;4.46;-1.82;7.16;-0.11;-0.09;0.01
06:58:53 م;7.12;-8.2;13.89;2.66;-0.28;0
06:58:53 م;2.41;4.94;1.61;7.63;1.49;0
06:58:53 م;-2.44;9.82;-5.33;4.55;1.56;-0.03
06:58:54 م;-0.09;10.14;-4.9;1.98;0.06;0.01
06:58:54 م;0.72;10.88;-0.46;-0.38;0.16;0.01
06:58:54 م;0.48;8.81;-3.33;-6.07;0.33;0.02
06:58:54 م;2.23;2.65;2.79;-8.73;0.05;0
06:58:54 م;1.7;-8.5;4.16;-8.73;0.15;0.01
06:58:54 م;0.4;-14.74;-0.87;-7.8;-0.46;0.02
06:58:54 م;0.2;-10.3;-5.66;-2.49;0.35;0.01
06:58:54 م;0.1;-9.96;-5.14;1.88;-0.17;0.01
06:58:54 م;-0.36;-14.88;-2.12;8.68;-0.04;0.01
06:58:55 م;1.47;-11.32;9.69;4.31;-1.33;0.04
06:58:55 م;1.24;-2.48;2.86;8.73;-0.32;0.02
06:58:55 م;-0.11;5.97;1.78;7.67;-0.61;0.01
06:58:55 م;-0.73;9.36;-5.48;1.86;-0.61;0.01
06:58:55 م;-1.33;10.5;-1.38;-0.85;0.14;0
06:58:55 م;-2.05;10.2;-3.47;-3.74;0.5;0
06:58:55 م;-2.55;8.1;-0.33;-5.22;0.13;0.03
06:58:55 م;2.63;-2.92;4.86;-8.73;-2.33;0.06
06:58:55 م;-0.05;-17.51;0.62;-8.73;0.26;0.01
06:58:55 م;1.16;-10.47;-3.75;-5.39;0.67;0
06:58:56 م;-0.14;-11.52;-5.52;2.13;-0.02;0.01
06:58:56 م;-1.82;-19.35;-3.51;8.73;0.01;0.01
06:58:56 م;1.03;-5.93;8.54;8.73;-1.66;0.01
06:58:56 م;1.02;4.91;-6.05;8.73;0.03;-0.04
06:58:56 م;-0.45;9.32;-5.56;1.21;-0.5;0
06:58:56 م;0.61;9.32;-2.82;-0.1;-0.27;0.02
06:58:56 م;1.39;9.75;-1.86;-0.17;-0.11;0.02
06:58:56 م;3.6;10.62;-5.14;1.94;-0.2;-0.01
06:58:56 م;-0.77;8.45;-7.31;-8.73;1.89;-0.02
06:58:57 م;4.18;-12.2;-7.21;-8.73;-0.81;0
06:58:57 م;1.28;-7.02;2.06;3.73;0.36;-0.09
06:58:57 م;2.17;-13.16;-1.77;0.55;0;0
06:58:57 م;1.74;-10.97;-1.12;-0.05;0.06;0.01
06:58:57 م;0.98;-9.99;-0.98;0.06;0.22;0.02
06:58:57 م;0.55;-10.25;-0.37;0.44;0.16;0.01
06:58:57 م;1.02;-10.74;-0.45;-0.26;0;0.02
06:58:57 م;0.65;-10.61;-0.71;-0.2;-0.04;0.02
06:58:57 م;2.04;-20.06;1.28;8.73;0.2;-0.01
06:58:57 م;3.6;-0.92;-3.96;8.73;1.51;0.02
06:58:58 م;-4.43;8.11;-4.38;6.89;-0.43;0.03
06:58:58 م;-2.83;9.45;-1.03;-1.04;0.48;0.01
06:58:58 م;-0.09;8.63;-0.6;-5.99;0.19;0.03
06:58:58 م;-1.81;-0.77;0.9;-8.73;-0.47;0.02
06:58:58 م;0.86;-12.33;8.66;-7.53;1.87;0.01
06:58:58 م;0.59;-9.53;2.31;-1.23;0.13;0
06:58:58 م;0.27;-10.24;2.41;0.26;0.04;-0.01
06:58:58 م;0.74;-9.1;2.64;1.22;-0.06;0.01
06:58:58 م;1.28;-8.98;4.22;0.63;0.19;0.01
06:58:59 م;1.59;-7.51;4.49;0.45;0.2;0.01
06:58:59 م;1.45;-7.9;5.7;0.17;0.13;0.01
06:58:59 م;1.74;-11.49;10.41;2.24;0.17;0.01
06:58:59 م;2.47;-8.51;12.87;8.73;-0.06;0
06:58:59 م;-3.62;9.25;-7.36;5.79;-0.03;-0.02
06:58:59 م;-4.07;9.98;-6.51;-0.28;0.57;-0.01
06:58:59 م;0.46;8.38;-7.11;-6.34;0.96;0.03
06:58:59 م;3.42;-10.4;-1.12;-8.73;-2.36;0.09
06:58:59 م;-2.99;-17.02;3.52;-4.77;-1.73;-0.02
06:58:59 م;1.25;-12.77;-2.94;-1.81;0.04;0.01
06:59:00 م;1.37;-13.1;-2.87;1.47;0.21;0.01
06:59:00 م;1.47;-9.16;-0.4;8.73;0.49;0
06:59:00 م;2.01;-0.09;3.66;8.73;-0.03;-0.01
06:59:00 م;1.42;8.39;-1.47;5.31;-0.6;0
06:59:00 م;1.62;10.02;-2.45;1.44;0.19;0
06:59:00 م;1.47;9.47;0.93;0.31;-0.12;0.01
06:59:00 م;1.24;9.34;2.95;-0.42;-0.42;0.02
06:59:00 م;1.55;8.86;2.94;-0.66;-0.29;0.02
06:59:00 م;1.71;9.11;2.7;-0.18;-0.1;0.01
06:59:01 م;-0.66;10.38;-1.89;-4.76;1.2;0
06:59:01 م;3.77;-0.48;13.42;-3.94;-2.18;0.04
06:59:01 م;0.6;-1.24;4.14;-5.47;-0.14;0.03
06:59:01 م;3.9;-8.11;3.99;-8.73;1.65;0.02
06:59:01 م;0.84;-10.54;-0.51;-2.97;0.23;-0.01
06:59:01 م;1.26;-9.17;-3.85;-0.44;0.08;0.01
06:59:01 م;0.94;-10.06;-4.45;1.33;-0.01;0.01
06:59:01 م;1.96;-8.48;-4.27;0.77;0.2;0.02
06:59:01 م;2.26;-8.61;-4.62;0.51;-0.49;0.01
06:59:01 م;2.35;-17.22;0.8;6.14;-0.69;0.01
06:59:02 م;2.79;-8.09;3.59;8.73;-0.54;0.01
06:59:02 م;-0.25;-0.17;7.56;7.91;0.4;-0.01
06:59:02 م;0.14;6.77;3.13;5.18;-0.18;0
06:59:02 م;1.91;9.75;-1.1;2.05;-0.25;0.01
06:59:02 م;0.08;9.58;0.65;-0.42;0.12;0.02
06:59:02 م;-0.21;9.57;1.18;-0.4;0.21;0.02
06:59:02 م;0.08;10.8;-2.55;-5.93;0.89;0.02
06:59:02 م;4.21;-3.57;3.81;-8.73;-1.98;0.05
06:59:02 م;-0.72;-11.11;3.62;-7.37;-0.74;0
06:59:03 م;-0.61;-10.11;-2.74;-5.72;-0.42;0.01
06:59:03 م;1.98;-11.82;-5.83;-0.53;-0.36;0.01
06:59:03 م;2.27;-17.59;-2.14;8.73;-0.24;-0.01
06:59:03 م;1.67;-6.4;7.32;8.73;-1.6;0
06:59:03 م;1.69;5.01;1.9;7.18;-0.33;-0.05
06:59:03 م;1.47;8.54;0.35;1.86;0.25;-0.03
06:59:03 م;1.63;9.98;-0.54;-0.29;-0.57;0.02
06:59:03 م;-0.82;10.41;-4.35;-4.25;-0.04;0.03
06:59:03 م;1.36;-2.51;0.03;-8.73;-1.22;0.08
06:59:04 م;7.39;-20.87;6.81;-8.73;5.23;0.07
06:59:04 م;2.14;-10.51;-2.43;-4.77;-0.32;0
06:59:04 م;2.57;-10.83;-4.32;0.11;-0.33;0.02
06:59:04 م;2.49;-10.47;-4.16;8.73;-0.07;-0.01
06:59:04 م;4.13;-10.59;8.42;7.99;0.15;-0.02
06:59:04 م;0.5;2.8;-2.08;8.73;1.62;-0.06
06:59:04 م;0.41;8.96;-2.43;3.53;-0.33;0.02
06:59:04 م;-0.16;10.15;-1.37;0.78;0.2;0.01
06:59:04 م;-0.32;10.43;0.74;-2.27;0.23;0.03
06:59:04 م;-0.73;2.21;-1.15;-8.73;-0.54;0.05
06:59:05 م;5.6;-12.13;3.48;-8.73;0.77;0.06
06:59:05 م;3.8;-8.78;-2.29;-3.34;0.12;0
06:59:05 م;2.38;-10.25;-4.24;-0.14;-0.02;0.01
06:59:05 م;1.53;-12.97;-0.94;4.78;-0.67;0.02
06:59:05 م;1.34;-7.2;1.04;7.14;0.66;0.02
06:59:05 م;2.66;-5.85;6.79;8.73;0.99;-0.01
06:59:05 م;-0.62;5.67;1.3;7.79;-0.61;-0.01
06:59:05 م;0.1;9.57;1.46;1.96;-0.17;0.01
06:59:05 م;0.36;10.08;0.46;0.17;-0.3;0.02
06:59:06 م;0.01;10.25;-1.63;-1.98;0.05;0.02
06:59:06 م;-0.1;6.9;-1.63;-7.12;0.47;0.04
06:59:06 م;3.93;-5.64;5.06;-8.73;-0.99;0.07
06:59:06 م;-1.81;-13.7;5.74;-6.58;0.88;0
06:59:06 م;1.65;-10.25;-1.17;-2.43;0.46;0.01
06:59:06 م;1.53;-12.53;0.5;3.4;-0.18;0.01
06:59:06 م;1.97;-11.09;4.18;8.34;-0.04;0
06:59:06 م;1.94;-4.52;7.84;8.73;0.12;-0.03
06:59:06 م;-1.16;7.65;1.91;4.87;0.04;-0.02
06:59:06 م;-1.59;9.89;-2.33;1.44;-0.13;0
06:59:07 م;-0.33;9.88;-2.92;-0.8;0.21;0.01
06:59:07 م;-0.74;8.8;-5.68;-8.44;0.58;0.04
06:59:07 م;4.42;-7.88;2.99;-8.73;-0.37;0.05
06:59:07 م;0.87;-10.31;0.34;-7.87;1.31;0
06:59:07 م;0.71;-11.16;-4.23;-1.33;-0.03;0.01
06:59:07 م;0.21;-11.57;-3.21;2.47;-0.85;0.01
06:59:07 م;1.1;-12.73;1.95;7.25;-0.08;0
06:59:07 م;3.44;-12.57;9.84;8.73;0.95;-0.04
06:59:07 م;4.96;9.86;-8.43;4.59;-1.25;-0.02
06:59:08 م;-3.23;9.98;-3.39;0.87;-0.42;0.01
06:59:08 م;-3.53;9.58;-2.43;-0.61;0.35;0.01
06:59:08 م;-0.98;10.18;-0.73;-1.28;0.34;0.01
06:59:08 م;-1.21;5.38;-0.7;-8.73;-0.03;0.04
06:59:08 م;-0.84;-11.03;-1.08;-8.73;2.96;0.03
06:59:08 م;-0.45;-10.15;-1.52;-0.88;-0.98;0
06:59:08 م;0.58;-10.76;-4.58;1.07;0.19;0.01
06:59:08 م;1.75;-15.65;-0.4;8.73;0.79;0.01
06:59:08 م;0.2;-10.49;8.87;8.73;-0.52;0
06:59:08 م;0.08;3.77;2.13;8.73;0.26;0.01
06:59:09 م;-1.47;8.75;-5.33;4.59;0.32;0
06:59:09 م;0.81;9.95;-5.65;0.44;-0.12;0.02
06:59:09 م;0.13;10.24;-4.92;-0.76;0.12;0.02
06:59:09 م;-0.96;10.02;-4.22;-5.3;0.39;0.03
06:59:09 م;-0.11;4.07;0.9;-8.73;0.64;0.04
06:59:09 م;-4.41;-19.67;-1.84;-8.73;3.57;0
06:59:09 م;-0.28;-12.42;-2.91;-1.73;0.27;0.01
06:59:09 م;-0.71;-9.3;-6.54;-2.2;0.2;0.02
06:59:09 م;-0.26;-11.49;-6.29;1.26;-0.55;0
06:59:10 م;0.05;-15.39;-4.75;7.24;1.63;-0.02
06:59:10 م;-0.2;-9.61;4.38;2.63;0.25;0.01
06:59:10 م;1.93;-11.56;11.11;8.73;-0.53;0
06:59:10 م;-1.08;6.52;-3.82;8.73;-0.28;-0.01
06:59:10 م;-0.34;9.62;-0.8;2.35;-0.54;0.01
06:59:10 م;-0.74;10.53;-0.75;0.49;-0.12;0.01
06:59:10 م;-1.07;9.85;-4.35;-4.39;0.86;0.01
06:59:10 م;1.74;5.71;3.78;-7.9;-0.59;0.04
06:59:10 م;1.71;-5.71;2.63;-8.73;0.03;0.02
06:59:10 م;-0.63;-18.03;1.42;-6.93;0.46;-0.01
06:59:11 م;1.83;-8.78;-5.56;-1.65;-0.07;0.01
06:59:11 م;1.61;-11.83;-6.74;0.42;-0.23;0.02
06:59:11 م;1.15;-16.89;-2.62;8.73;-0.83;0.02
06:59:11 م;0.52;-11.12;5.17;8.73;-0.06;0
06:59:11 م;-0.33;3.96;3.52;8.12;-1.6;0.02
06:59:11 م;0.97;8.57;2.98;3.28;-1.01;-0.01
06:59:11 م;-0.14;9.61;-0.76;1.78;-0.4;-0.02
06:59:11 م;-1.07;9.77;-3.37;-0.14;-0.2;0.02
06:59:11 م;-0.35;10.08;-3.41;-0.39;0.07;0.02
06:59:12 م;-2.28;9.92;-7.05;-4.72;1.63;0.02
06:59:12 م;1.36;2.73;1.18;-8.73;-1.25;0.07
06:59:12 م;5.67;-10.58;8.66;-8.73;2.98;0.04
06:59:12 م;1.49;-11.12;-0.08;-6.11;0.74;0.02
06:59:12 م;1.34;-10.6;-3.39;-3.01;0.07;0
06:59:12 م;1.09;-11.14;-4.45;-0.02;-0.15;0.01
06:59:12 م;2.25;-17.95;-0.9;8.73;-0.62;0.01
06:59:12 م;-1.66;-3;-2.29;8.73;1.05;-0.01
06:59:12 م;2.2;9.24;-1.29;3.84;0.09;-0.01
06:59:13 م;-1.2;9.58;-2.62;2.02;0.2;-0.01
06:59:13 م;-1.47;8.99;-7.5;0.11;0.37;0
06:59:13 م;-0.81;9.83;-4.56;-0.36;0.31;0.01
06:59:13 م;-1.39;10.65;-6.32;-3.88;1.11;0.03
06:59:13 م;1.8;5.5;2.08;-7.09;0.19;0.05
06:59:13 م;3.05;-4.28;6.69;-8.73;-1.39;0.06
06:59:13 م;1.07;-10.54;9.56;-3.11;0.64;0.01
06:59:13 م;1.3;-9.11;0.37;-8.73;2.56;0
06:59:13 م;1.36;-8.72;-2.79;-1.95;0.11;0
06:59:13 م;2.09;-9.8;-4.1;-0.21;0.07;0.01
06:59:14 م;2.86;-14.51;-1.23;7.22;-1.36;0.02
06:59:14 م;1.74;-7.4;3.24;8;0.19;0
06:59:14 م;1.83;-0.77;7.31;7.35;0.48;-0.01
06:59:14 م;2.12;5.93;1.58;6.94;0.03;-0.02
06:59:14 م;-0.88;10.25;0.52;2.55;-0.02;-0.01
06:59:14 م;-1.03;10.15;-1.9;0.75;0.05;0.01
06:59:14 م;-0.7;10.05;-1.24;-0.04;0.05;0.01
06:59:14 م;-0.31;10.17;-4.34;-3.16;0.35;0.03
06:59:14 م;-0.93;3.49;-1.81;-8.73;-0.31;0.07
06:59:15 م;6.04;-12.55;3.96;-8.73;2.25;0.07
06:59:15 م;2.73;-10.62;-0.42;-0.84;-0.19;0.01
06:59:15 م;1.67;-10.72;-1.7;-1.4;0.66;0.01
06:59:15 م;1.43;-12.93;0.51;4.05;-1.01;0.01
06:59:15 م;1.91;-8.17;2.05;5.05;-0.16;0.01
06:59:15 م;1.31;-5.74;7.86;8.73;0.79;-0.01
06:59:15 م;1.03;4.85;3.33;7.23;-0.15;-0.01
06:59:15 م;0.88;9;1.02;3.62;-0.18;-0.01
06:59:15 م;0;9.97;-2.06;1.87;-0.02;0
06:59:15 م;0.14;9.91;-4.32;-0.05;0.15;0.02
06:59:16 م;0.74;9.94;-3.31;-2.81;0.21;0.04
06:59:16 م;2.91;9.4;0.45;-2.33;0.31;0.03
06:59:16 م;1.75;4.92;4.38;-5.71;-0.35;0.04
06:59:16 م;2.13;-4.84;-0.56;-8.73;0.57;0.04
06:59:16 م;1.21;-15.79;0.12;-5.85;-0.49;-0.01
06:59:16 م;2.03;-9.73;-6.2;-1.19;-0.22;0.01
06:59:16 م;2.24;-11.52;-5.15;2.2;-0.5;0.02
06:59:16 م;1.7;-12.35;-0.77;7.88;-0.03;0.01
06:59:16 م;2.79;-9.21;5.71;8.73;-0.13;0
06:59:17 م;0.03;4.61;-4;8.73;-0.16;-0.03
06:59:17 م;-0.68;9.78;-0.85;1.22;0.13;0
06:59:17 م;0.08;10.1;-0.4;0.12;-0.13;0.02
06:59:17 م;-0.91;10.08;-1.8;-2.99;0.38;0.03
06:59:17 م;0.84;6.26;-0.37;-7.58;0.04;0.04
06:59:17 م;3.38;-4.38;5.05;-8.73;0.36;0.05
06:59:17 م;-1.74;-17.76;4.63;-8.57;1.33;-0.01
06:59:17 م;1.07;-9.01;-2.49;-3.07;0.22;0
06:59:17 م;1.42;-10.1;-3.75;-0.67;-0.3;0.01
06:59:17 م;1.54;-10.3;-2.87;1.67;-0.55;0.01
06:59:18 م;2.09;-11.96;1.33;8.73;0.25;0.01
06:59:18 م;2.35;-2.22;6.51;8.73;-0.32;-0.01
06:59:18 م;1.78;5.15;2.66;6.37;-0.48;-0.01
06:59:18 م;0.46;9.32;-2.36;2.46;0.1;-0.01
06:59:18 م;0.06;9.98;-0.45;1.46;0;0.01
06:59:18 م;0.41;10.26;-3.01;0.97;0.08;0.01
06:59:18 م;0.59;9.65;-4.61;-0.52;0.39;0.01
06:59:18 م;-0.67;6.83;-6.1;-8.73;0.92;0.04
06:59:18 م;5.28;-21.21;2.2;-8.73;-0.14;0.04
06:59:19 م;1.68;-0.91;-3.34;0.92;0.7;0.03
06:59:19 م;0.54;-9.94;-2.99;-0.84;-0.28;0.01
06:59:19 م;0.68;-10.86;-4.36;0.01;-0.14;0.01
06:59:19 م;1.45;-16.25;-1.63;1.3;-0.02;0
06:59:19 م;-0.75;-11.9;-0.4;8.73;1.15;0.01
06:59:19 م;-2.77;4.75;3.18;8.73;0.38;0.01
06:59:19 م;4.36;9.37;-2.78;2.1;-0.66;0.03
06:59:19 م;2.94;9.96;-1.56;0.65;0;0
06:59:19 م;0.98;9.74;0.28;-3.43;0.38;0.02
06:59:19 م;0.97;-0.05;5.03;-8.73;-0.25;0.05
06:59:20 م;2.25;-5.58;4.67;-8.14;1.07;0.03
06:59:20 م;-0.77;-13.63;0.34;-7.58;1.67;0.02
06:59:20 م;0.5;-9.11;-3.39;-1.82;0.88;0
06:59:20 م;1.15;-10.15;-4.88;0.32;0.21;0.01
06:59:20 م;-0.01;-15.91;-0.63;5.31;-1.57;0.03
06:59:20 م;0.73;-9.82;1.65;8.73;-0.24;0.01
06:59:20 م;0.62;3.13;3.98;8.73;-0.52;0
06:59:20 م;0.64;8.77;1.43;4.24;-0.67;0.01
06:59:20 م;0.89;10.13;-2.09;0.86;-0.23;0.01
06:59:21 م;0.29;9.97;-2.27;-1.05;0.16;0.02
06:59:21 م;1.24;9.76;0.31;-0.57;0.11;0.02
06:59:21 م;0.92;9.84;0.29;-0.22;0.39;0.03
06:59:21 م;1.3;7.9;-2.96;-6.2;1.01;0.04
06:59:21 م;4.03;-11.21;-3.89;-8.73;0.37;0.06
06:59:21 م;1.09;-14;0.96;0.22;-1.16;0
06:59:21 م;1.98;-12.21;-2.86;-0.79;-0.14;0.01
06:59:21 م;2.88;-10.08;-2.05;2.49;-0.64;0.01
06:59:21 م;2.03;-10;1.47;5.62;0.4;0.01
06:59:21 م;2.16;-5.7;4.98;8.73;0.55;0
06:59:22 م;1.42;1.38;5.93;8.73;0.29;-0.02
06:59:22 م;0.79;8.84;-0.25;3.92;-0.72;0.01
06:59:22 م;-0.3;10.23;-3.3;0.69;0.1;0.01
06:59:22 م;0.55;10.09;-1.57;-0.13;0.24;0.01
06:59:22 م;-1.02;9.89;-7.61;-5.4;1.38;0.03
06:59:22 م;2.67;-17.12;-6.39;-8.73;-3.51;0.08
06:59:22 م;3.93;-7.65;-2.63;-0.68;-0.98;-0.01
06:59:22 م;3.6;-10.25;-6.17;-0.55;-0.17;0.01
06:59:22 م;2.84;-10.07;-4.67;1.85;0.18;0.02
06:59:23 م;2;-12.79;-0.2;5.47;-0.25;0.03
06:59:23 م;2.21;-13.07;6.8;8.73;0.03;0.01
06:59:23 م;0.06;-0.62;5.7;8.73;-0.23;-0.01
06:59:23 م;-1.13;9.22;0.07;3.39;0;0
06:59:23 م;-0.09;9.5;-3.65;2.01;0.66;0
06:59:23 م;1.7;10.47;-3.7;0.63;-0.01;0.01
06:59:23 م;0.8;10.19;-3.14;-0.82;-0.05;0.01
06:59:23 م;2.65;8.13;-0.19;-5.39;0.12;0
06:59:23 م;0.93;-3.4;1.97;-8.73;-1.94;0.02
06:59:23 م;1.18;-11.74;3.48;-8.73;-0.79;0.01
06:59:24 م;0.71;-10.04;-1.87;-2.83;-0.39;0.01
06:59:24 م;0.99;-10.96;-3.14;-0.61;-0.27;0.01
06:59:24 م;1.57;-15.99;-2.79;8.73;0.52;0
06:59:24 م;0.85;-5.68;6.66;8.73;-0.42;0
06:59:24 م;-2.05;5.96;4.39;5.61;0.14;0
06:59:24 م;2.21;8.5;0.74;3.77;-0.7;0.01
06:59:24 م;3.2;9.64;-1.96;2.4;-0.55;0
06:59:24 م;0.75;9.59;-3.12;1.55;-0.24;0
06:59:24 م;-1.14;8.93;-6.08;-0.52;0.22;0
06:59:25 م;-0.51;9.26;-2.05;-1.65;0.28;0.01
06:59:25 م;0.34;10.18;-1.83;-1.21;-0.04;0.02
06:59:25 م;-0.28;9.83;-1.78;-2.13;0.18;0.02
06:59:25 م;1.15;8.74;1.92;-2.54;0.38;0.03
06:59:25 م;2.77;2.54;0.41;-8.73;0.96;0.03
06:59:25 م;0.3;-18.51;3.25;-8.73;0.83;0.01
06:59:25 م;1.74;-10.55;-1.63;-2.21;0.33;0
06:59:25 م;1.3;-10.96;-3.68;-0.49;-0.04;0.01
06:59:25 م;1.24;-10.98;-2.23;5.78;0.55;0
06:59:25 م;1.79;-7.7;2.52;4.6;0.51;0.02
06:59:26 م;1.15;-6.31;8.26;6.22;0.13;0
06:59:26 م;-1.88;3.49;4.35;7.17;1.67;-0.02
06:59:26 م;-2.56;8.22;0.96;3.88;0.51;0
06:59:26 م;0.23;10.04;0.31;1.83;-0.03;0.01
06:59:26 م;1.53;9.96;-0.9;1.31;-0.41;0.02
06:59:26 م;-0.13;10.05;-2.3;-0.07;0.06;0.02
06:59:26 م;-2.07;9.18;-4.68;-7.57;1.53;0.02
06:59:26 م;3.92;-6.01;2.45;-8.73;-0.3;0.05
06:59:26 م;-0.95;-14.5;5.95;-5.81;-0.01;0.01
06:59:27 م;0.97;-12.63;-0.9;-2.33;0.01;0
06:59:27 م;1.15;-11.15;-1.36;-0.41;0.18;0.01
06:59:27 م;1.49;-8.3;-2.26;3.67;-0.84;0.01
06:59:27 م;1.3;-10.35;3.01;1.57;-0.04;0.01
06:59:27 م;2.19;-7.72;4.12;4.34;0.22;0.01
06:59:27 م;1.55;-2.15;5.18;8.73;0.89;-0.01
06:59:27 م;0.6;5.65;2.71;5.11;0.24;-0.01
06:59:27 م;1.21;8.13;4.96;2.67;-0.59;0.01
06:59:27 م;1.27;9.45;0.18;0.16;-0.06;0.02
06:59:28 م;1.66;9.05;1.7;-1.59;0.27;0.02
06:59:28 م;2.09;6.73;2.8;-3.92;0.17;0.03
06:59:28 م;2.03;-4.8;0.5;-8.73;-0.05;0.05
06:59:28 م;-2.07;-18.73;2.76;-8.21;0.83;-0.01
06:59:28 م;1.45;-9.92;-3.33;-1.9;0.17;0
06:59:28 م;2.03;-10.25;-4.47;-0.03;0.01;0.01
06:59:28 م;1.58;-10.88;-2.13;3.02;-0.09;0.01
06:59:28 م;1.19;-7.51;0.07;4.3;-0.22;0.02
06:59:28 م;2.55;-10.66;8.53;5.82;0.56;0.01
06:59:28 م;-0.67;1.16;3.18;8.73;0.98;-0.02
06:59:29 م;-1.13;8.53;-0.38;4.46;0.2;0.01
06:59:29 م;-0.47;9.94;-0.64;0.85;-0.01;0.02
06:59:29 م;0.73;10.36;0.92;-0.29;-0.16;0.02
06:59:29 م;0.21;10.17;-1.6;-1.65;-0.43;0.03
06:59:29 م;-1.08;3.61;-5.12;-8.73;1.03;0.04
06:59:29 م;6.96;-16.66;4.74;-8.73;4.21;0.05
06:59:29 م;2.37;-8.96;-1.82;-2.89;-0.39;0
06:59:29 م;1.93;-9.11;-3.65;-1.9;0.01;0.01
06:59:29 م;2.29;-9.15;-4.7;-0.36;-0.11;0.01
06:59:30 م;1.79;-16.32;-0.93;7.04;-0.48;0.03
06:59:30 م;0.3;-8.39;2.59;8.44;0.47;0.02
06:59:30 م;0.44;0.78;6.23;8.73;1.13;-0.01
06:59:30 م;0.37;8.59;0.37;4.05;-0.35;0
06:59:30 م;0.03;9.76;-0.19;1.74;-0.34;0.02
06:59:30 م;-0.24;10.4;-0.54;0.6;-0.01;0.02
06:59:30 م;0.52;9.67;0.07;-0.62;-0.13;0.02
06:59:30 م;-0.25;9.51;1.44;-1.01;0.37;0.02
06:59:30 م;1.28;9.22;1.92;-0.64;0.24;0.02
06:59:30 م;0.85;9.05;2;-1.37;0.45;0.02
06:59:31 م;-0.68;4.34;0.93;-8.73;0.85;0.05
06:59:31 م;0.84;-5.67;3.77;-8.73;-2.43;-0.01
06:59:31 م;1.52;-10.98;-1.12;-4.88;-0.2;0.01
06:59:31 م;0.78;-10.87;-6.23;-3.26;-0.89;0
06:59:31 م;1.9;-7.98;-7.86;-1.37;-0.8;0
06:59:31 م;0.91;-7.33;-9.26;3.68;-0.14;-0.02
06:59:31 م;1.97;-11.64;-4.3;7.39;0.36;-0.02
06:59:31 م;3.42;-9.92;3;8.73;0.95;0
06:59:31 م;5.1;0.13;5.61;8.73;-1.32;-0.01
06:59:32 م;2;8.67;1.06;3.57;-1.82;0.03
06:59:32 م;-0.34;9.82;0.56;1.73;-0.27;0
06:59:32 م;0.14;9.73;-1.12;1.21;-0.02;0
06:59:32 م;0.57;9.3;-2.88;0.05;0.09;0.02
06:59:32 م;-1.02;9.69;1.94;-0.84;0.17;0.03
06:59:32 م;4.55;9.08;2.5;-1.81;0.31;0.01
06:59:32 م;-0.5;3.33;5.36;-8.73;0.63;0.03
06:59:32 م;-0.33;-4.25;-1.7;-8.73;-1.29;0.01
06:59:32 م;0.22;-10.73;-1.93;-7.69;-0.59;0.03
06:59:32 م;1.76;-8.08;-6.27;-1.96;-0.27;0.01
06:59:33 م;2.52;-8.25;-7.74;0.92;-0.03;0
06:59:33 م;2.17;-10.22;-4.74;3.34;0.34;0.01
06:59:33 م;2.96;-17.58;0.3;8.73;1.27;0
06:59:33 م;2.89;-2.5;6.66;8.73;-0.27;-0.02
06:59:33 م;2.28;7.51;3.9;6.06;-1.82;-0.01
06:59:33 م;0.59;9.18;-1.42;2.43;-0.29;-0.02
06:59:33 م;-0.91;9.96;-3.17;0.44;-0.23;0
06:59:33 م;0.3;9.94;-4.1;-0.96;0.08;0.02
06:59:33 م;0.52;9.85;-2.22;-3.86;0.33;0.03
06:59:34 م;0.63;3.88;0.44;-8.73;0.14;0.05
06:59:34 م;5.26;-11.58;4.97;-8.73;-1.43;0.07
06:59:34 م;2.1;-11.22;-1.85;-6.49;-0.89;0.02
06:59:34 م;3.77;-9.83;-8.37;-2.36;0;0.01
06:59:34 م;2.7;-7.92;-7.79;0.79;-0.25;0.01
06:59:34 م;8.32;-24.91;-4.92;8.73;0.08;0.04
06:59:34 م;-2.03;-4.25;7.47;8.73;-2.64;0.02
06:59:34 م;-0.06;6.38;4.91;6.04;-1.9;-0.03
06:59:34 م;3.2;9.64;-1.94;1.73;-0.94;-0.01
06:59:34 م;-0.46;10.07;-2.71;-0.16;-0.41;-0.01
06:59:35 م;0.34;10.09;-1.85;-1.77;0.01;0.02
06:59:35 م;-0.79;8.9;-4.66;-7.75;0.23;0.05
06:59:35 م;3.99;-7.47;-2.56;-8.73;-2.57;0.07
06:59:35 م;-0.99;-20.05;0.44;-5.9;-0.47;-0.01
06:59:35 م;2.45;-11.89;-6.12;-2.76;-0.54;0
06:59:35 م;1.88;-11.84;-6.69;-0.62;-0.83;0.01
06:59:35 م;1.74;-13.8;-5.16;8.67;-0.32;0.01
06:59:35 م;2.55;-11.38;4.44;8.73;-0.67;-0.01
06:59:35 م;1.6;-4.13;6.45;8.73;0.75;-0.05
06:59:36 م;-2.9;8.16;0.54;3.97;-1.51;0.01
06:59:36 م;-2.77;10.38;0.86;1.18;-0.1;0.02
06:59:36 م;0.03;10.32;-0.85;-0.11;0.12;0.01
06:59:36 م;0.31;10.61;0.71;-1.64;0.27;0.02
06:59:36 م;0.37;8.25;1.34;-4.49;-0.13;0.04
06:59:36 م;0.66;0.71;3.07;-8.73;-0.74;0.06
06:59:36 م;3.32;-13;0.65;-8.73;0.16;0.03
06:59:36 م;0.93;-10.21;-3.04;-3.79;-0.72;0.02
06:59:36 م;2.09;-13.81;-3.35;4.31;-0.83;-0.01
06:59:37 م;1.35;-10.29;-0.57;7.43;0.1;0
06:59:37 م;6.08;-7.36;5.59;8.73;0.45;-0.05
06:59:37 م;-1.51;9.42;-2.65;4.14;-1.77;0.02
06:59:37 م;2.12;10.09;-1.19;0.58;-0.12;0
06:59:37 م;0.54;9.63;1.37;-0.26;-0.17;0.01
06:59:37 م;0.97;10.21;-3.59;-1.2;0.21;0.01
06:59:37 م;-1.58;1.09;-7.8;-8.73;2.37;0.03
06:59:37 م;-1.9;-16.21;4.73;-8.73;0.85;0.01
06:59:37 م;1.09;-12.04;-3.08;-3.26;-0.21;0.02
06:59:37 م;1.89;-9.36;-6.17;-1.84;0.07;0.01
06:59:38 م;0.96;-10.22;-7.2;-0.29;-0.06;0.01
06:59:38 م;1.47;-6.78;-8.83;0.82;-0.11;0.02
06:59:38 م;1.08;-11.26;-5.19;2.82;-0.81;0.02
06:59:38 م;-0.33;-14.25;-2.21;8.73;0.5;0.02
06:59:38 م;0.06;-5.71;5.53;8.73;-0.84;0.01
06:59:38 م;1;8.24;-0.33;3.49;-0.7;0
06:59:38 م;-0.2;9.34;-2.73;2.18;-0.33;0
06:59:38 م;0.76;9.99;-3.39;0.25;-0.11;0
06:59:38 م;0.18;11.23;-3.54;-3.45;0.27;0.02
06:59:39 م;-4.37;-1.47;-8.46;-8.73;1.48;0.04
06:59:39 م;5.12;-32.02;-0.24;-8.73;-2.62;0.01
06:59:39 م;0.63;-8.63;-7.75;-2.9;-0.24;0
06:59:39 م;0.97;-6.83;-8.15;-1.33;-0.24;0.01
06:59:39 م;1.57;-15.02;-6.34;8.73;0.75;-0.02
06:59:39 م;-0.48;-13.81;5.56;8.73;0.42;0.01
06:59:39 م;1.35;2.66;4.47;8.25;-0.98;-0.01
06:59:39 م;1.58;9.03;-0.85;2.55;-1.25;0
06:59:39 م;0.45;9.61;0.88;0.93;-0.45;0.01
06:59:39 م;0.48;9.95;0.28;1.65;-0.52;0
06:59:40 م;0.23;9.9;-2.97;0.38;-0.44;0
06:59:40 م;-0.59;10.43;-2.32;-4.48;-0.04;0.02
06:59:40 م;0.77;4.44;4.44;-8.73;-0.26;0.04
06:59:40 م;1.43;2.75;6.68;-5.34;-0.96;0.05
06:59:40 م;2.02;-15.55;-7.35;-8.73;0.48;0.04
06:59:40 م;0.27;-11.71;-5.47;-3.18;0.69;0.01
06:59:40 م;0.54;-10;-8.04;-0.78;0.18;0.02
06:59:40 م;-0.82;-12.85;-5.2;2.3;-1.37;0.02
06:59:40 م;0.74;-11.02;-4.79;8.73;1.18;-0.01
06:59:41 م;-0.06;-2.85;2.13;8.73;-0.2;-0.03
06:59:41 م;1.49;8.97;-1.17;2.93;-1.33;-0.01
06:59:41 م;-2.03;9.61;-5.43;0.8;-0.52;0
06:59:41 م;-0.23;9.61;-4.44;-0.49;0.08;0.01
06:59:41 م;0.62;9.81;-3.97;-1.54;-0.03;0.03
06:59:41 م;-0.74;5.75;-0.76;-8.73;0.97;0.04
06:59:41 م;3.42;-13.62;2.79;-8.73;-1.08;0.07
06:59:41 م;-0.12;-11.47;0.48;-3.16;-2.09;0
06:59:41 م;0.36;-13.14;-0.98;-0.45;-0.31;0.02
06:59:41 م;1.28;-12.19;-1.66;1.26;-0.53;0.02
06:59:42 م;1.35;-8.15;-1.94;0.5;-0.29;0.01
06:59:42 م;1.02;-9.58;-0.89;-0.74;0.33;0.01
06:59:42 م;-0.14;-12.86;1.07;0.57;0.33;0.01
06:59:42 م;3.56;-15.31;-1.68;8.73;1.23;-0.01
06:59:42 م;-2.59;4.18;-3.35;8.73;-1.89;0.03
06:59:42 م;-0.91;9.7;-3.12;1.75;-0.5;0.02
06:59:42 م;-0.57;10.08;-3.47;-0.15;0.03;0.01
06:59:42 م;0.74;9.51;-0.32;-0.42;-0.19;0.02
06:59:42 م;0.1;10.09;-1.14;0.75;-0.02;0.01
06:59:43 م;0.15;9.57;-2.14;1.97;-0.32;0
06:59:43 م;-1.38;8.93;-7.63;0.14;-0.05;0.01
06:59:43 م;-2.16;11.25;-7.54;-5.75;1.12;0.02
06:59:43 م;-3.42;-4.61;-4.16;-8.73;-1.85;0.03
06:59:43 م;0.42;-17.36;3.76;-8.73;0.2;0.03
06:59:43 م;1.98;-10.65;-3.94;-3.62;-0.36;0.01
06:59:43 م;1.66;-10.3;-6.69;-2.17;-0.21;0.01
06:59:43 م;1.28;-9.21;-6.38;-0.91;-0.01;0.02
06:59:43 م;1.32;-7.74;-6.95;-0.19;-0.05;0.01
06:59:43 م;1.34;-8.11;-6.56;0.08;-0.04;0.01
06:59:44 م;1.4;-7.7;-7.14;0.01;0.2;0.01
06:59:44 م;1.02;-7.92;-6.84;0.04;0.15;0.01
06:59:44 م;1.24;-7.36;-7.01;-0.1;0.02;0.02
06:59:44 م;1.07;-7.37;-6.9;-0.27;-0.03;0.02
06:59:44 م;1.2;-8.74;-7.1;0.96;-0.16;0.01
06:59:44 م;1.26;-15.47;-5.09;8.73;1.11;-0.01
06:59:44 م;1.31;-10.56;1;8.73;1.15;-0.02
06:59:44 م;2.16;5.83;-0.76;7.26;-1.34;-0.01
06:59:44 م;0.1;9.44;1.94;1.9;-0.48;-0.01
06:59:45 م;0.45;9.73;2.62;0.94;-0.55;0.01
06:59:45 م;0.21;9.31;-0.13;1.53;-0.2;-0.01
06:59:45 م;0.26;10.5;-3.69;-1.05;-0.41;0.03
06:59:45 م;-0.94;4.06;1.64;-8.73;-0.19;0.05
06:59:45 م;-1.68;-10.25;8.56;-6.75;2.47;0.01
06:59:45 م;0.61;-12.96;5.17;-3.48;-0.05;0.02
06:59:45 م;0.31;-7.88;-0.78;-4.89;-0.99;0.03
06:59:45 م;-0.23;-9.93;-4.14;-5.03;-0.56;0.01
06:59:45 م;0.98;-8.48;-6.5;-2.47;-0.54;0
06:59:45 م;2.17;-10.17;-8.8;0.41;-0.3;0.01
06:59:46 م;0.68;-21.29;-2.95;8.73;0.67;0
06:59:46 م;-0.12;-11.58;8.56;8.73;-1.14;0.01
06:59:46 م;-0.87;7.67;-4.67;7.16;-1.86;0
06:59:46 م;1.02;9.22;-3.29;1.58;-0.23;-0.01
06:59:46 م;0.74;9.74;-2.75;0.17;-0.18;0.02
06:59:46 م;1.26;9.99;-3.5;1.49;-0.31;-0.01
06:59:46 م;-0.08;9.41;-6.95;0.14;-0.1;0
06:59:46 م;-2.07;9.17;-4.81;-8.45;0.95;0.02
06:59:46 م;-0.15;-7.27;-3.48;-8.73;-3.07;0.05
06:59:47 م;-3.34;-21.4;5.24;-8.73;-0.08;-0.02
06:59:47 م;0.96;-11.34;-4.98;-2.02;-0.84;0.02
06:59:47 م;1.2;-10.71;-5.6;-1.18;0.03;0.01
06:59:47 م;0.64;-10.46;-4.99;0.47;-0.25;0.01
06:59:47 م;0.78;-11.34;-4.15;-0.32;0.02;0.02
06:59:47 م;0.75;-18.73;-2.8;8.73;0.5;0
06:59:47 م;0.8;-8.21;3.75;8.73;-0.89;0.01
06:59:47 م;0.41;8.03;-0.46;2.54;-0.51;0
06:59:47 م;0.83;7.66;4.75;0.25;-0.24;0.02
06:59:47 م;3.29;7.48;3.86;-0.06;0.27;0
06:59:48 م;0.59;7.59;4.07;-1.29;0.25;0
06:59:48 م;-0.05;-3.49;-4.22;-8.73;-0.39;0.01
06:59:48 م;-4.18;-17.89;4.71;-3.7;0.18;-0.01
06:59:48 م;0.75;-12.61;-3.43;-3.09;0.09;0.01
06:59:48 م;1.08;-14.18;-3.77;1.75;-0.78;0.02
06:59:48 م;1.05;-14.32;1.69;7.1;-0.01;0
06:59:48 م;-0.92;-11;8.27;8.73;1.08;-0.03
06:59:48 م;-0.35;7.13;-6.33;7.79;-1.16;-0.03
06:59:48 م;0.49;9.7;-4.9;1.11;-0.71;0.01
06:59:49 م;-0.93;10.41;-3.13;-0.91;-0.08;0.02
06:59:49 م;-0.29;8.94;0.56;-7.62;-0.3;0.03
06:59:49 م;-1.74;3.07;2.54;-8.73;0.29;0.06
06:59:49 م;1.69;-14.2;-3.11;-8.73;0.85;0.03
06:59:49 م;1.38;-11.99;-1.88;-1.27;-1.03;0.03
06:59:49 م;0.41;-10.57;-6.58;-1.54;-0.68;0.01
06:59:49 م;0.13;-10.38;-7.36;2.08;-0.14;0
06:59:49 م;2.07;-17.77;-2.11;8.73;0.9;-0.01
06:59:49 م;0.93;-10.21;0.85;8.73;0.03;0.01
06:59:49 م;-0.27;0.39;4.55;8.73;-0.84;0.01
06:59:50 م;-1.13;8.43;2.4;3.6;-1.12;0
06:59:50 م;-1.59;9.44;0.87;-1.35;-0.1;0.02
06:59:50 م;1.5;9.42;2.46;0.26;0.31;-0.01
06:59:50 م;-0.85;10.56;-4.2;-3.76;0.44;0.03
06:59:50 م;1.11;-7.01;5.31;-8.73;-3.72;0.09
06:59:50 م;1.11;-9.8;8.3;-6.23;2.55;0.03
06:59:50 م;1.01;-10.15;-2.74;-7.63;2.14;0.02
06:59:50 م;0.03;-12.33;-3.11;-1.13;0.01;0.01
06:59:50 م;0.83;-12.36;-3.11;7.13;-0.31;0
06:59:51 م;1.21;-8.39;1.91;2.5;0.06;0
06:59:51 م;1.15;-7.06;6.16;3.8;-0.09;-0.01
06:59:51 م;1.88;-2.77;7.45;8.57;0.48;-0.02
06:59:51 م;1.55;6.83;-1.4;6.7;-0.64;-0.01
06:59:51 م;0.85;9.71;-0.57;2.79;-0.17;-0.01
06:59:51 م;0.92;10.03;-0.13;1.49;-0.25;0
06:59:51 م;0.05;10.03;-1.92;0.72;-0.18;0.01
06:59:51 م;-0.51;9.86;-2.09;0.34;0.01;0.01
06:59:51 م;-0.47;9.98;-2.54;-0.32;0.19;0.01
06:59:52 م;0.24;10.09;-0.81;0.27;0.03;0
06:59:52 م;-2.41;10.35;-4.48;-2.11;0.49;0.01
06:59:52 م;-1.8;5.1;0.86;-8.73;-0.31;0.05
06:59:52 م;1.35;0.22;3.81;-7.69;-0.15;0.02
06:59:52 م;2.91;-12.66;1.19;-8.73;1.58;0.05
06:59:52 م;1.25;-9.8;-3.09;-4.37;1.07;-0.02
06:59:52 م;2.13;-8.93;-6.33;-1.24;0.11;0
06:59:52 م;2.17;-9.24;-7.14;1.57;-0.64;0.02
06:59:52 م;3.42;-14.39;-4.92;8.73;-0.3;0.02
06:59:52 م;2.49;-3;2.11;3.62;-1.11;0.02
06:59:53 م;1.62;-4.63;6.76;0.14;-0.47;0.01
06:59:53 م;1.2;-4.82;6.62;-0.15;-0.25;0.01
06:59:53 م;1.52;-5.09;6.58;0.21;-0.1;0.01
06:59:53 م;1.81;-4.3;6.43;0.42;0.12;0.01
06:59:53 م;4.17;-4.74;3.08;8.73;0.02;-0.04
06:59:53 م;1;7.72;0.6;4.54;-0.79;-0.04
06:59:53 م;-0.12;10.08;-2.71;-0.52;-0.47;0.01
06:59:53 م;-1.94;9;-4.68;-7.83;0.92;0.04
06:59:53 م;4.71;-11.86;-0.62;-8.73;-3.24;0.08
06:59:54 م;-1.02;-14.77;1.85;-4.41;-0.51;0
06:59:54 م;0.66;-10.62;-5.84;-2.88;-0.4;0
06:59:54 م;1.53;-9.87;-7.87;-1.2;-0.1;0.01
06:59:54 م;1.88;-11.44;-6.29;2.4;-0.33;0.02
06:59:54 م;0.43;-10.36;-3.11;8.49;0.59;0.01
06:59:54 م;0.97;-11.24;6.17;8.73;-0.02;0
06:59:54 م;-3.63;5.76;-5.23;8.73;0.4;-0.04
06:59:54 م;-1.25;9.69;-2.89;2;-0.32;0
06:59:54 م;0.18;10.33;-3.55;0.61;-0.25;0.01
06:59:54 م;-0.64;9.8;-1.88;-0.25;-0.06;0.02
06:59:55 م;-0.26;10.03;-0.94;-0.23;0.29;0.01
06:59:55 م;0.4;9.93;-1.95;-2.13;0.5;0.03
06:59:55 م;-0.04;0.91;-0.43;-8.73;0.19;0.06
06:59:55 م;2.44;-9.01;3.9;-8.73;1.13;0.04
06:59:55 م;1.11;-12.78;-0.46;-5.94;1.05;0.02
06:59:55 م;1.94;-10.55;-5.78;-3.8;0.66;0.01
06:59:55 م;1.05;-11.46;-6.9;0.91;-0.41;0.01
06:59:55 م;1.91;-14.51;-4.13;7.65;-0.6;0.01
06:59:55 م;1.45;-9.18;3.08;4.79;-0.36;0
06:59:56 م;2.33;-8.62;5.7;8.73;0.17;-0.03
06:59:56 م;2.38;7.29;-0.15;6.19;-1.41;-0.03
06:59:56 م;-2.01;10.02;-4.59;1.74;-0.69;0
06:59:56 م;-1.48;9.5;-4.46;-0.74;0;0.02
06:59:56 م;-0.17;9.67;-1.92;-3.07;0.17;0.04
06:59:56 م;1;9.35;-0.93;-5.14;1.21;0.03
06:59:56 م;1.61;-1.03;-0.26;-8.73;-2.13;0.07
06:59:56 م;-3.68;-19.28;2.97;-8.73;4.09;0
06:59:56 م;1.34;-9.34;-3.18;-3.97;0.35;-0.01
06:59:56 م;1.72;-10.02;-5.5;-1.46;-0.44;0.01
06:59:57 م;0.9;-10.26;-4.62;2.73;0.05;0.02
06:59:57 م;3.08;-9.26;-3.73;8.73;0.73;0.02
06:59:57 م;1.41;-3.87;7.64;8.73;-0.14;0
06:59:57 م;-2.65;6.63;-0.84;8.13;-1.31;-0.01
06:59:57 م;0.91;10.02;-0.89;1.43;-0.57;0
06:59:57 م;0.06;10.14;-2.32;-0.32;-0.07;0.01
06:59:57 م;-0.11;8.96;-0.29;-2.79;0.27;0.01
06:59:57 م;1.32;9.08;0.54;-1.66;-0.67;0.04
06:59:57 م;0.87;9.3;-0.7;-3.67;0.45;0.03
06:59:58 م;1.4;2.36;1.31;-8.73;0.4;0.05
06:59:58 م;2.8;-12.21;3.96;-8.73;0.38;0.05
06:59:58 م;1.41;-10.79;-0.78;-2.52;-0.91;0
06:59:58 م;0.43;-10.85;-3.08;-1.75;0.28;0.01
06:59:58 م;-0.4;-14.29;-0.89;2.03;-0.99;0.01
06:59:58 م;-0.55;-10.44;-1.92;8.73;0.38;0.01
06:59:58 م;3.28;3.77;2.54;3.92;-1.08;0.01
06:59:58 م;5.85;3.94;7.34;3.63;-0.43;-0.02
06:59:58 م;1.75;6.66;6.07;5.59;-0.57;-0.04
06:59:58 م;-3.06;9.81;-1.4;2.35;-0.39;0
06:59:59 م;-0.98;9.82;-1.59;-0.77;0.21;0
06:59:59 م;0.91;9.73;-1.39;-0.86;0.03;0.02
06:59:59 م;0.68;9.83;-0.34;-0.71;-0.01;0.01
06:59:59 م;0.02;9.84;-0.72;-0.21;-0.01;0.01
06:59:59 م;0.34;9.56;0.1;-0.23;0.05;0.01
06:59:59 م;0.95;9.93;0.8;-0.01;-0.03;0.01
06:59:59 م;-0.7;10.26;-2.43;-0.02;0.6;-0.01
06:59:59 م;-1.35;5.34;-3;-8.73;0.82;0.05
06:59:59 م;5.46;-5.21;5.07;-8.67;-1.48;0.07
07:00:00 م;-0.35;-11.23;2.14;-8.7;1.75;0.03
07:00:00 م;1.59;-10.22;-3.99;-5.93;1.22;0
07:00:00 م;1.46;-10.47;-6.61;-0.83;0.18;0.01
07:00:00 م;1.06;-14.92;-3.68;8.33;-1.11;0.01
07:00:00 م;0.52;-11.91;2.91;8.73;-0.12;0
07:00:00 م;-0.91;2.03;-1.05;8.73;0.85;-0.08
07:00:00 م;1.16;9.94;-3.46;2.01;-0.35;0.01
07:00:00 م;0.08;9.77;0.24;-0.17;0.05;0.01
07:00:00 م;2.3;9.42;3.2;0.59;-0.19;0
07:00:00 م;-0.26;10.04;-0.82;1.62;-0.34;-0.01
07:00:01 م;-1.7;9.39;-4.59;-1.25;0.17;0.01
07:00:01 م;-0.45;9.3;0.65;-1.21;0.05;0.02
07:00:01 م;0.34;10.06;1.07;-0.88;0.17;0.01
07:00:01 م;0.44;9.76;-1.61;-2;0.72;0.01
07:00:01 م;0.14;8.42;-6.48;-8.7;1.04;0.04
07:00:01 م;5.06;-17.71;-2.53;-8.73;-1.39;0.05
07:00:01 م;1.07;-10.14;-3.55;-4.42;-0.7;-0.01
07:00:01 م;1.78;-8.54;-8.47;-1.14;-0.19;0
07:00:01 م;1.1;-7.54;-8.16;0.78;-0.28;0.01
07:00:02 م;1.67;-8.12;-6.78;1.27;-0.21;0.01
07:00:02 م;0.6;-11.18;-4.74;5.56;0.06;0.03
07:00:02 م;0.83;-11.1;0.89;6.68;0.11;0.01
07:00:02 م;0.57;-6.84;6.58;6.19;-0.65;0.01
07:00:02 م;1.73;-0.62;8.91;5.74;-0.83;-0.01
07:00:02 م;3.39;6.09;3.23;4.94;-1.05;-0.05
07:00:02 م;-0.38;9.47;-0.51;3.47;-1.07;-0.01
07:00:02 م;-0.53;9.76;-3.2;1.69;-0.47;0
07:00:02 م;-1.98;9.83;-3.55;-0.71;0.23;0.01
07:00:03 م;-1.4;9.09;-3.26;-6.83;0.67;0.02
07:00:03 م;-2.41;-1.81;-7.32;-8.73;-0.48;0.04
07:00:03 م;0.19;-19.26;-0.04;-8.73;-1.51;0.05
07:00:03 م;1.3;-6.93;-6.15;-2.48;-0.84;0.01
07:00:03 م;0.35;-8.67;-6.97;1.17;0.04;0
07:00:03 م;1.05;-12.19;-3.32;3.89;0.08;-0.01
07:00:03 م;1.24;-11.36;1.22;3.99;-0.15;0.01
07:00:03 م;1.44;-7.56;4.82;5.18;0.32;0
07:00:03 م;1.49;-3.42;8.29;6.22;-0.76;0
07:00:03 م;2.53;3.98;3.14;7.03;-0.09;-0.02
07:00:04 م;1.09;9.13;0.71;3.59;-0.57;0
07:00:04 م;2.09;9.16;0.19;2.56;-0.33;-0.01
07:00:04 م;-1.26;9.9;-2.32;1.1;-0.46;0
07:00:04 م;-0.46;10.04;-0.54;0.19;-0.1;0.01
07:00:04 م;-0.23;10.05;-2.23;-0.36;0.17;0.02
07:00:04 م;1.09;9.88;-0.33;-0.77;0.08;0.02
07:00:04 م;0.29;9.51;1.02;-0.97;0.03;0.01
07:00:04 م;1.06;9.66;1.09;-0.78;0.11;0.01
07:00:04 م;0.96;9.51;2.19;-0.42;-0.16;0.02
07:00:05 م;0.95;9.69;1.94;-0.19;-0.07;0.02
07:00:05 م;0.53;9.32;2.36;-0.19;-0.13;0.01
07:00:05 م;0.32;9.39;3.06;0;0;0.01
07:00:05 م;0.86;9.38;2.37;-0.01;0.09;0
07:00:05 م;1.23;9.63;1.17;-0.63;0.12;0.01
07:00:05 م;-1.84;4.08;0.73;-8.48;0.32;0.04
07:00:05 م;3.15;-8.35;4.95;-8.73;0.32;0.05
07:00:05 م;-0.53;-13.57;-0.89;-8.73;0.9;0.01
07:00:05 م;0.79;-9;-5.91;-2.77;-0.13;0.01
07:00:05 م;0.81;-9.66;-6.59;1.1;-0.46;0.01
07:00:06 م;1.71;-14.61;-3.9;8.73;0.15;-0.01
07:00:06 م;2.8;-7.87;4.41;8.42;0.29;0.02
07:00:06 م;2.26;1.04;2.97;8.73;0.06;-0.02
07:00:06 م;0.52;8.43;-0.56;4.54;-1.45;0.01
07:00:06 م;1.24;9.8;-1.34;1.17;-0.43;0
07:00:06 م;-0.24;10.07;-2.73;-0.13;0.13;0.01
07:00:06 م;-0.04;9.83;-0.76;-2.82;0.56;0.02
07:00:06 م;-0.6;5.7;0.72;-7.81;0.18;0.05
07:00:06 م;3.38;-8.52;1.72;-8.73;-1.05;0.06
07:00:07 م;1.08;-15.87;0.25;-6.72;-1;0.01
07:00:07 م;1.43;-9.57;-6.16;-2.65;0.12;0
07:00:07 م;1.63;-11.4;-6.59;2.16;-0.64;0.01
07:00:07 م;2.09;-12.67;-3.05;8.73;0.63;0.02
07:00:07 م;1.01;-6.39;5.5;8.73;-0.41;0.01
07:00:07 م;0.36;2.58;4.27;8.73;-0.18;-0.05
07:00:07 م;2.72;10.09;-0.8;2.96;-1.03;-0.01
07:00:07 م;-0.82;9.61;-3.31;1.16;-0.37;-0.01
07:00:07 م;-1.32;9.32;-4.22;-0.42;0.09;0.01
07:00:07 م;-0.91;10.45;-1.8;-4.31;0.52;0.02
07:00:08 م;-1.95;-2.25;-1.61;-8.73;-2.3;0.07
07:00:08 م;-0.52;-10.58;6.52;-8.73;4.57;0.01
07:00:08 م;2.75;-11.92;-2.56;-5.31;0.6;0
07:00:08 م;3.19;-9.73;-4.98;-1.02;-0.06;-0.01
07:00:08 م;4.19;-9.91;-5.32;2.99;-0.3;0.01
07:00:08 م;2.78;-10.39;-1.46;3.21;-0.32;0
07:00:08 م;1.15;-14.23;4.66;5.54;-0.31;0
07:00:08 م;2.07;-7.05;6.21;8.73;-0.6;0
07:00:08 م;0.86;3.69;1.75;8.73;-0.89;-0.08
07:00:09 م;1.24;9.76;-2.03;1.59;-0.89;0
07:00:09 م;0.9;9.96;-3.49;0.75;-0.14;0.01
07:00:09 م;-0.87;10.35;-3.98;-0.22;0.24;0.02
07:00:09 م;0.55;10.26;-4.11;-2.39;0.41;0.02
07:00:09 م;-0.09;2.52;2;-8.73;-1.75;0.1
07:00:09 م;6.74;-14.54;-2.19;-8.73;2.62;0.08
07:00:09 م;6.06;-6.6;-5.54;-0.98;-0.33;0.03
07:00:09 م;2.17;-9;-6;-0.03;0.06;0.01
07:00:09 م;2;-13.45;-2.93;4.63;-1.75;0.02
07:00:10 م;1.02;-9.08;-0.56;8.65;-0.14;0.02
07:00:10 م;5.72;-4.87;3.39;8.73;-1.31;-0.01
07:00:10 م;-1.2;8.98;-1.72;3.74;-1.43;0
07:00:10 م;0.68;9.87;-2.35;1.15;-0.19;0
07:00:10 م;0.82;9.76;-1.22;-0.43;-0.15;0.03
07:00:10 م;2.79;9.54;-0.47;-0.67;0.3;0.02
07:00:10 م;0.67;9.2;-3.33;-8.13;1.07;0.05
07:00:10 م;8.77;-20.53;-7.29;-8.73;-7.41;0.08
07:00:10 م;3.56;-5.41;-4.38;-0.54;-1.21;0
07:00:10 م;3.66;-9.77;-5.29;1.23;-0.66;0.01
07:00:11 م;5.02;-16.08;-0.32;7.45;-1.16;0.01
07:00:11 م;0.86;-4.53;-0.29;1.36;-0.23;0
07:00:11 م;4.03;-9.72;2.46;-5.69;0.19;0.02
07:00:11 م;6.23;-15.23;-1.52;8.73;1.88;-0.01
07:00:11 م;1.29;5.09;6.29;4.78;-0.35;0
07:00:11 م;-1.12;8.02;3.49;3.06;0.07;-0.03
07:00:11 م;0.21;9.52;-0.46;0.84;-0.37;0
07:00:11 م;1.41;9.8;-1.05;-1.32;0.2;0.01
07:00:11 م;-1.49;5.19;-5.79;-8.73;2.01;0.01
07:00:11 م;4.33;-18.06;0.19;-8.73;0.01;0.05
07:00:12 م;2.72;-8.95;-3.38;-0.46;-1.24;-0.01
07:00:12 م;3.14;-8.33;-6.03;-0.65;-0.22;0.01
07:00:12 م;2.69;-7.49;-7.35;0.19;0.09;0.01
07:00:12 م;1.91;-9.33;-4.73;1.15;-0.13;0.01
07:00:12 م;2.56;-17.83;-2.1;8.73;1.27;0.01
07:00:12 م;4.88;-0.13;-2.7;8.73;-1.82;0
07:00:12 م;0.47;8.59;1.15;2.95;-0.98;-0.02
07:00:12 م;-0.17;9.52;2.39;0.49;-0.3;0
07:00:12 م;0.63;9.17;0.44;-0.85;0.2;0.01
07:00:13 م;3.72;8.83;0.18;-1.3;0.13;-0.01
07:00:13 م;-0.78;6.27;-6.47;-8.73;1.7;0.01
07:00:13 م;6.77;-23.22;6.96;-8.73;-1.86;0.06
07:00:13 م;-0.6;-5.06;-4.86;-1.83;0.35;-0.01
07:00:13 م;1.44;-8.23;-4.78;-2.28;0.23;0
07:00:13 م;0.7;-8.46;-6.19;-0.15;-0.06;0
07:00:13 م;1.93;-9.69;-6.78;1.66;-0.01;0.01
07:00:13 م;2.73;-22.81;-1.49;8.49;-0.46;0.01
07:00:13 م;-0.35;-8.2;4.64;8.12;-0.43;0.01
07:00:14 م;-1.89;2.37;4.51;7.65;1.27;-0.03
07:00:14 م;0.25;6.41;5.84;5.65;-0.95;-0.02
07:00:14 م;1.56;9.26;-4.32;2.26;-1.51;0.02
07:00:14 م;-1.11;9.94;-2.48;0.05;-0.19;0
07:00:14 م;-0.92;10.77;-1.27;-0.55;0.19;0
07:00:14 م;-2.69;9.99;-0.3;-4.27;0.76;0.03
07:00:14 م;0.93;7.89;2.89;-4.23;0.87;0.03
07:00:14 م;1.55;2.01;4.72;-7.42;-1.66;0.06
07:00:14 م;2.45;-7.9;8.97;-6.02;0.47;0.03
07:00:14 م;1.42;-5.12;1.17;-5.87;-1.37;0.01
07:00:15 م;2.03;-12.12;-3.55;-6.26;0.23;0.02
07:00:15 م;1.46;-11.13;-5.83;-1.3;0.46;0.01
07:00:15 م;1.64;-11.39;-4.18;6.48;-1.23;0.01
07:00:15 م;1.57;-9.71;2.22;7.46;-0.23;0.01
07:00:15 م;2.05;-7.76;5.74;8.73;0.25;-0.05
07:00:15 م;-1.3;9;-0.16;3.15;-1.51;-0.01
07:00:15 م;-1.15;9.78;0.03;0.77;-0.09;-0.01
07:00:15 م;2.55;10.05;-2.73;-0.06;-0.3;0.01
07:00:15 م;-0.23;10.34;-1.9;-1.29;0.05;0.02
07:00:16 م;-0.23;7.56;1.08;-6.89;0.09;0.03
07:00:16 م;1.38;3.67;4.29;-7.16;-0.35;0.05
07:00:16 م;1.8;-8.9;6.84;-6.75;-0.8;0.03
07:00:16 م;1.75;-9.11;1.25;-5.19;0.31;0.04
07:00:16 م;2.04;-9.95;-2.35;-3.18;1.42;0
07:00:16 م;1.44;-8.88;-3.96;-1.24;-0.24;-0.01
07:00:16 م;2.31;-10.53;-4.65;0.01;0.03;0.01
07:00:16 م;2.85;-14.09;-1.98;6.89;-1.97;0.01
07:00:16 م;1.04;-9.94;3.84;6.4;0.07;0
07:00:16 م;1.1;-4.92;7.4;8.73;0.02;-0.02
07:00:17 م;-0.45;7.24;-0.29;5.35;-0.75;-0.01
07:00:17 م;0.35;9.56;0.55;1.63;-0.31;0
07:00:17 م;0.52;10.08;-0.94;0.88;-0.03;0
07:00:17 م;1.05;9.9;0.59;-0.04;-0.07;0.02
07:00:17 م;0.13;9.81;0.67;-2.95;0.12;0.03
07:00:17 م;-1.28;3.21;-1.29;-8.73;0.61;0.05
07:00:17 م;8.2;-11.34;8.64;-8.73;3.18;0.07
07:00:17 م;1.92;-9.83;0.4;-4.95;-0.79;0.01
07:00:17 م;1.97;-10.18;-3.38;-3.33;-0.19;0.01
07:00:18 م;1.58;-10.07;-4.57;-0.53;-0.21;0.01
07:00:18 م;1.51;-12.3;-2.72;3.81;-0.37;0.02
07:00:18 م;2.56;-11.25;1.85;5.24;0.43;0.02
07:00:18 م;1.66;-7.04;6.35;8.18;-0.33;0
07:00:18 م;0.37;0.13;5.18;8.73;0.37;-0.04
07:00:18 م;-0.47;9.21;-0.35;3.3;-1;0.01
07:00:18 م;0.14;9.72;-1.54;0.69;-0.18;0.01
07:00:18 م;0.5;9.79;-1.91;-0.77;0.01;0.02
07:00:18 م;1.05;10.23;-0.45;-1.92;0.14;0.02
07:00:18 م;-2.85;1.68;-1.73;-8.73;0.74;0.06
07:00:19 م;5.26;-16.31;4.1;-8.73;4.84;0.03
07:00:19 م;0.93;-9.01;-3.83;-5.64;0.54;0.02
07:00:19 م;1.2;-7.95;-5.36;-2.68;-0.13;0
07:00:19 م;0.62;-8.94;-6.97;0.42;-0.27;0.01
07:00:19 م;1.08;-13.91;-5.27;8.03;-0.81;-0.01
07:00:19 م;2.15;-11;1.11;6.68;-0.26;0.02
07:00:19 م;0.77;-5.67;6.26;8.73;-0.58;0.01
07:00:19 م;2.06;4.95;1.91;7.21;-0.06;-0.04
07:00:19 م;1.52;9.51;-1.22;2.42;-0.6;0
07:00:20 م;-0.38;10.19;-1.5;0.16;-0.05;0.01
07:00:20 م;-0.68;10.23;-0.98;-1.11;0.27;0.01
07:00:20 م;0.91;9.04;-0.73;-3.58;0.57;0.03
07:00:20 م;0.26;3.94;4.94;-6.57;0.39;0.03
07:00:20 م;3.95;-0.09;8.03;-4.49;-0.34;0.03
07:00:20 م;1.21;-7.75;4.72;-8.73;0.95;0.01
07:00:20 م;1.77;-10.17;-1.41;-7.45;0.16;0.04
07:00:20 م;1.58;-9.06;-4.71;-3.16;-0.45;0.02
07:00:20 م;1.21;-8.54;-6.9;-1.33;-0.12;0.01
07:00:20 م;0.99;-7.98;-6.89;-0.58;-0.07;0.01
07:00:21 م;0.61;-8.28;-6.21;-0.49;0.09;0.02
07:00:21 م;0.92;-13.55;-3.69;3.26;-0.43;0
07:00:21 م;0.99;-12.25;0.49;8.73;1.14;0.02
07:00:21 م;-0.09;-0.94;5.12;8.73;1.58;-0.05
07:00:21 م;-0.41;9.51;-0.49;3.72;-0.81;-0.01
07:00:21 م;0.17;9.48;-2.64;0.99;-0.5;0.02
07:00:21 م;0.23;9.96;0.85;-0.07;-0.07;0.02
07:00:21 م;0.36;10.27;0.37;-0.73;0.38;0.01
07:00:21 م;-0.04;10.52;-2.6;-4.25;0.92;0.02
07:00:22 م;-1.42;-1.57;4.58;-8.73;-2.24;0.07
07:00:22 م;-1.07;-9.54;-1.41;-8.73;0.15;0.02
07:00:22 م;0.05;-12;-3.55;-3.61;0.77;0
07:00:22 م;2.43;-9.41;-7.18;-0.98;0.27;0.01
07:00:22 م;2.1;-10.76;-7.13;1.15;-0.37;0.01
07:00:22 م;3.96;-20;-1.11;6.81;-0.66;0.02
07:00:22 م;2.26;-11.8;2.77;8.73;-1.13;0
07:00:22 م;-1.89;2.77;-3.82;8.73;-1.97;-0.04
07:00:22 م;1.32;8.44;-2.22;1.74;-0.56;-0.04
07:00:22 م;-0.19;9.76;-3.06;-0.03;-0.55;0
07:00:23 م;-0.28;9.79;-3.49;-0.72;0.25;0.02
07:00:23 م;0.61;10.23;-3.38;-0.75;0.44;0.03
07:00:23 م;0.57;8.24;-3.92;-8.73;1.24;0.05
07:00:23 م;3.76;-1.42;1.55;-8.73;0.42;0.06
07:00:23 م;1.74;-15.9;3.68;-8.39;1.84;0.03
07:00:23 م;1.54;-11.24;-1.91;-3.54;-0.45;0.01
07:00:23 م;2.57;-8.73;-5.42;-1.84;-0.39;0.01
07:00:23 م;1.87;-10.8;-5.33;0.2;-0.16;0.01
07:00:23 م;2.09;-17.37;-1.2;8.73;-0.86;0
07:00:24 م;2.57;-5.57;2.03;8.73;0.25;0
07:00:24 م;0.21;5.05;2.9;6.71;0.02;-0.03
07:00:24 م;-1.94;8.81;2.89;3.19;-0.88;0.01
07:00:24 م;-1.11;9.89;1.99;1.16;-0.59;0.01
07:00:24 م;0.14;10.03;-1.94;-0.74;-0.09;0.01
07:00:24 م;-1.01;8.23;-0.93;-5.85;-0.24;0.04
07:00:24 م;0.59;-3.75;-0.91;-8.73;-2.92;0.08
07:00:24 م;-3.22;-21.74;2.49;-8.73;4.33;0.01
07:00:24 م;1.47;-8.82;-5.13;-3.64;-0.06;0.01
07:00:25 م;1.93;-7.06;-6.44;-1.71;-0.34;0
07:00:25 م;1.66;-7.58;-7.34;-0.95;-0.25;0.01
07:00:25 م;1.81;-7.63;-7.67;0;-0.21;0.01
07:00:25 م;1.75;-17.45;-3.63;7.35;-1.38;0.02
07:00:25 م;0.71;-8.29;0.82;8.73;-0.66;0.02
07:00:25 م;2.88;-1.65;5.58;8.73;-0.61;-0.04
07:00:25 م;0.19;7.99;-0.49;4.55;-1.7;-0.02
07:00:25 م;-0.68;9.54;-2.32;1.37;-0.69;-0.01
07:00:25 م;-0.23;9.67;-4.04;0.52;-0.26;0.01
07:00:25 م;-0.23;9.59;-4.25;-0.17;0.31;0.01
07:00:26 م;-1.03;10.73;-2.39;-1.16;0.6;0.02
07:00:26 م;-1.02;3.08;-0.21;-8.73;0.02;0.07
07:00:26 م;-0.11;-10.62;1.17;-8.73;-1.18;0
07:00:26 م;2.16;-13.58;-0.26;-6.37;0.24;0.03
07:00:26 م;1.54;-8.65;-5.98;-3.15;-0.35;0.01
07:00:26 م;0.92;-6.68;-7.13;-2.16;-0.05;0.01
07:00:26 م;1.02;-6.95;-8.82;-0.58;-0.15;0.01
07:00:26 م;0.92;-5.84;-10.06;2.43;0.29;0
07:00:26 م;2.36;-14.29;-6.57;8.73;0.93;-0.02
07:00:27 م;2.75;-6.57;-0.25;4.12;1.16;-0.01
07:00:27 م;0.97;-3.92;4.85;7.66;0.58;0
07:00:27 م;-2.95;3.62;4.1;7.5;1.26;0.01
07:00:27 م;-0.4;8.04;-1.71;7;0.94;-0.01
07:00:27 م;1.01;9.64;-1.19;1.68;-0.22;0.02
07:00:27 م;0.78;10.2;-0.74;-0.1;0.13;0.01
07:00:27 م;0.25;10.83;0.59;-1.61;0.43;0.02
07:00:27 م;0.84;4.89;5.83;-8.15;-0.71;0.04
07:00:27 م;1.78;-1.79;5.37;-8.73;-0.24;0.03
07:00:27 م;0;-10.01;1.22;-8.73;2.25;-0.02
07:00:28 م;-1.39;-8.2;-1.08;-3.73;1.05;0.01
07:00:28 م;2.54;-7.68;-7.1;-1.78;0.21;0.01
07:00:28 م;1.54;-8.59;-7.79;-0.17;0.08;0.01
07:00:28 م;0.61;-13.8;-5.39;5.75;-1.5;0.02
07:00:28 م;0.24;-8.49;0.28;3.88;0.8;0.02
07:00:28 م;0.72;-7.59;4.76;3.64;-0.09;0.01
07:00:28 م;0.94;-6.08;8.59;5.96;-0.5;0.01
07:00:28 م;0.12;0.69;6.5;7.45;-0.07;0
07:00:28 م;-1.26;4.37;5.81;7.59;-1.15;0.03
07:00:29 م;6.71;9.38;-4.12;1.89;-0.24;0.01
07:00:29 م;-3.57;10.88;-5.51;-0.02;0.94;-0.03
07:00:29 م;1.38;11.87;-4.23;-0.79;0.57;0.02
07:00:29 م;2.09;12.89;0.26;-2.24;-0.27;0.02
07:00:29 م;-1.19;4.72;4.81;-8.73;0.72;0.02
07:00:29 م;0.71;-1.69;1.41;-8.73;0.63;0.03
07:00:29 م;0.17;-13.02;1.34;-8.73;1.61;0.02
07:00:29 م;-1.13;-6.63;-3.84;-4.22;0.23;-0.01
07:00:29 م;-0.69;-8.36;-7.05;-2.06;-0.46;0
07:00:29 م;-0.4;-12.11;-8.85;2.49;-0.26;0.02
07:00:30 م;0.23;-14.81;-6.21;8.73;-0.75;0
07:00:30 م;0.41;-4.83;5.38;8.73;-0.65;-0.01
07:00:30 م;0.15;4.46;1.53;6.68;-0.6;-0.02
07:00:30 م;1.02;9.03;-1.48;2.34;-0.53;0
07:00:30 م;-3.48;11.27;-0.11;0.13;0.28;0
07:00:30 م;-0.61;10.52;-2.23;-0.64;0.32;0.02
07:00:30 م;0.72;10.08;-2.02;-1.31;-0.07;0.03
07:00:31 م;0.62;9.83;1.28;-1.57;0.15;0.02
07:00:31 م;-1.55;5.78;1.54;-8.73;0.7;0.04
07:00:31 م;5.99;-8.65;3.39;-8.73;0.11;0.06
07:00:31 م;0.34;-15.12;-0.04;-5.33;-1.4;0
07:00:31 م;1.02;-10.72;-7.31;-4.08;-0.2;0.01
07:00:31 م;0.12;-8.58;-8.31;-1.19;0.05;0.01
07:00:31 م;-0.5;-6.35;-6.54;0.17;0.33;0.01
07:00:31 م;0.12;-8.48;-8.48;0.41;0.01;0.01
07:00:31 م;-1.23;-13.14;-7.93;8.73;-0.7;0.01
07:00:31 م;1.71;-12.59;4.38;8.73;-0.52;0
07:00:31 م;1.34;0.01;-0.47;8.73;-1.39;-0.05
07:00:31 م;-4.03;9.45;1.45;1.56;-0.68;-0.02
07:00:32 م;-3.57;10.59;-0.09;-0.56;-0.19;0.02
07:00:32 م;-1.48;10.42;0.19;-0.82;-0.05;0.03
07:00:32 م;-0.18;10.48;-1.33;-1.81;0.05;0.03
07:00:32 م;-2.45;6;-6.04;-8.73;2.28;0.03
07:00:32 م;8.28;-14.03;-1.59;-8.73;2.05;0.05
07:00:32 م;0.97;-10.53;-3.09;-2.43;-0.63;0.01
07:00:32 م;0.43;-10.41;-7.46;-3.55;0.36;0.01
